Username,ID,ExperimentName,Session,Trial,Date,TimeDif,Condition Number,Stimuli File,Order File,Condition Description,Condition Notes,Stimuli*Cue,Stimuli*Answer,Stimuli*Value,"Stimuli*AdvShuffle; Target Cue, Answer",Stimuli*AdvShuffle; Target Value,Procedure*Item,Procedure*Trial Type,Procedure*Max Time,Procedure*Min Time,Procedure*Text,Procedure*Settings,Procedure*Shuffle,Response*RT,Response*Response,Response*Accuracy,Response*RTfirst,Response*RTlast,Response*strictAcc,Response*lenientAcc,Response*focus,Response*Focus,Response*Study_Protocol,Grid*grid,Response*JOLItem0,Response*JOLItem1,Response*JOLItem2,Response*JOLItem3,Response*JOLItem4,Response*JOLItem5,Response*JOLItem6,Response*JOLItem7,Response*JOLItem8,Response*JOLItem9,Response*IsCONF,Response*Selectivity_Index,Response*SI_Best,Response*SI_Chance,Response*CorrectCount,Response*PossibleVal,Response*ReceivedVal,Response*Coord,Response*Value,Response*Correct,Response*RespOrder,Response*CorrectCoord,Response*JOL,Grid_Item_Presentation Order,Grid_Item_Coord,Grid_Item_Value,Grid_Item_Correct,Grid_Item_RespOrder,Grid_Item_CorrectCoord,Grid_Item_JOL,Grid_Item_Stim_Cue,Grid_Item_Stim_Answer,Grid_Item_Stim_Value,"Grid_Item_Stim_AdvShuffle; Target Cue, Answer",Grid_Item_Stim_AdvShuffle; Target Value
9999999999,abcdefghijk,VSS-CONF-GLBLOC,1,1,2020-04-16T10:08:59-07:00,11.82683706,1,vssStim.csv,vssProcSimLocalOnly.csv,vss-sim-loc,"10 items presented simultaneously in a grid, with values 1-10, without tones (only local item-level confidence ratings)",,,,,,0,instruct,user,10,"<p>In this task, you will be shown some grids with various objects placed throughout. Your goal is to try to remember the locations of the objects within the grid to the best of your ability.</p><p>You will be presented with a grid for a total of 30 seconds. Please study the location of the items within the grid. After the 30 seconds has elapsed, the grid will automatically disappear and you will be shown a blank grid with the various objects underneath.</p><p>Your goal is to place each object in its correct location by dragging (click and hold) on the object from the bottom and dropping the item into the cell you wish to place the item into. If you are not sure where an object was presented, please make a guess at its correct location.</p><p>A box will pop-up to the right of the grid after placing the object. Please enter a number from 1 (not at all confident) to 10 (extremely confident), indicating how confident you are that the item was replaced in its previously viewed location. Then, click the ""Save Rating"" button in the pop-up box to close it before placing the next item. If you change an item's location after placing it, you will be able to update your confidence rating, if necessary, otherwise your previous rating will be kept.</p>",,off,11611,,,-1,-1,,,,1,,,,,,,,,,,,,,,,,,,,,,,,,,,,,,,,,,,,,
9999999999,abcdefghijk,VSS-CONF-GLBLOC,1,2,2020-04-16T10:09:12-07:00,13.32631087,1,vssStim.csv,vssProcSimLocalOnly.csv,vss-sim-loc,"10 items presented simultaneously in a grid, with values 1-10, without tones (only local item-level confidence ratings)",,,,,,0,instruct,user,10,"<p>After you hit submit, you will be shown your total score. Your total score depends on how many items you correctly placed.</p><p>In this task, the objects within the grid will differ in value. The value of the objects will range from 1 to 10 and will be indicated in the top left corner of each cell.</p><p>Your total score depends on the point values of the objects you correctly placed. If you correctly place an object that is worth 8 points you will receive 8 points towards your total score. If you correctly place an object that is worth 3 points you will receive 3 points towards your total score. You will not be penalized for misplacing items, so if you're not sure, please try to guess the item's location. Your goal is to maximize your total score.</p><p>The next screen will show you an example.</p>",,off,13032,,,-1,-1,,,,1,,,,,,,,,,,,,,,,,,,,,,,,,,,,,,,,,,,,,
9999999999,abcdefghijk,VSS-CONF-GLBLOC,1,3,2020-04-16T10:09:23-07:00,11.19380212,1,vssStim.csv,vssProcSimLocalOnly.csv,vss-sim-loc,"10 items presented simultaneously in a grid, with values 1-10, without tones (only local item-level confidence ratings)",,,,,,0,demoGrid1,user,5,"<p>For example, you will be shown a like this grid for 30 seconds.</p>",,off,10659,,,-1,-1,,,,1,,,,,,,,,,,,,,,,,,,,,,,,,,,,,,,,,,,,,
9999999999,abcdefghijk,VSS-CONF-GLBLOC,1,4,2020-04-16T10:09:43-07:00,19.83329105,1,vssStim.csv,vssProcSimLocalOnly.csv,vss-sim-loc,"10 items presented simultaneously in a grid, with values 1-10, without tones (only local item-level confidence ratings)",,,,,,0,demoGrid2,user,5,"<p>After 30 seconds, the grid will disappear and you will be shown a blank grid with the objects underneath.</p>|<p>To place an item in the grid, you first click the item and then click the cell into which you would like to place it.</p>",,off,19261,,,-1,-1,,,,1,,,,,,,,,,,,,,,,,,,,,,,,,,,,,,,,,,,,,
9999999999,abcdefghijk,VSS-CONF-GLBLOC,1,5,2020-04-16T10:10:07-07:00,23.72403598,1,vssStim.csv,vssProcSimLocalOnly.csv,vss-sim-loc,"10 items presented simultaneously in a grid, with values 1-10, without tones (only local item-level confidence ratings)",,,,,,0,demoGrid3,user,5,"<p>Please complete this process for all of the items. When you have placed the last item in the grid, you will be given your total score. After you receive your total score, you will be shown the next grid. This process will repeat for a total of 8 grids.</p>",,off,23000,,,-1,-1,,,,1,,,,,,,,,,,,,,,,,,,,,,,,,,,,,,,,,,,,,
9999999999,abcdefghijk,VSS-CONF-GLBLOC,1,6,2020-04-16T10:10:41-07:00,34.17430186,1,vssStim.csv,vssProcSimLocalOnly.csv,vss-sim-loc,"10 items presented simultaneously in a grid, with values 1-10, without tones (only local item-level confidence ratings)",Images/kettle.jpg|Images/microphone.GIF|Images/whistle.png|Images/football.png|Images/key.png|Images/dart.png|Images/trophy.jpg|Images/toy.jpg|Images/penny.png|Images/drum.png,kettle|microphone|whistle|football|key|dart|trophy|toy|penny|drum,3|2|4|7|6|1|10|5|9|8,allStim|allStim|allStim|allStim|allStim|allStim|allStim|allStim|allStim|allStim,Grid1|Grid1|Grid1|Grid1|Grid1|Grid1|Grid1|Grid1|Grid1|Grid1,2::11,vdrGridDA,user,,,"""isi"": 0, ""study protocol"": ""simultaneous"", ""tones"": ""off""",off,33514,,,-1,-1,,,,1,simultaneous,"[{""4"":5,""2"":1},{""4"":0,""1"":9},{""2"":4,""0"":3},{""3"":2,""1"":8},{""3"":7,""0"":6}]",,,,,,,,,,,,,,,,,,,,,,,,,,,,,,,,,,,
9999999999,abcdefghijk,VSS-CONF-GLBLOC,1,7,2020-04-16T10:12:25-07:00,104.2007482,1,vssStim.csv,vssProcSimLocalOnly.csv,vss-sim-loc,"10 items presented simultaneously in a grid, with values 1-10, without tones (only local item-level confidence ratings)",Images/kettle.jpg|Images/microphone.GIF|Images/whistle.png|Images/football.png|Images/key.png|Images/dart.png|Images/trophy.jpg|Images/toy.jpg|Images/penny.png|Images/drum.png,kettle|microphone|whistle|football|key|dart|trophy|toy|penny|drum,3|2|4|7|6|1|10|5|9|8,allStim|allStim|allStim|allStim|allStim|allStim|allStim|allStim|allStim|allStim,Grid1|Grid1|Grid1|Grid1|Grid1|Grid1|Grid1|Grid1|Grid1|Grid1,2::11,vdrGridTestDALocal,user,,"Please place the items in their correct locations. If you do not remember exactly, please provide your best guess.",,off,103559,,,14351,92038,,,,1,,,4,4,8,5,1,4,2,9,1,2,undefined,-0.125,19,11,2,55,10,"4.1,0.0,3.4,0.2,0.3,3.0,1.4,3.3,1.1,2.1","3,2,4,7,6,1,10,5,9,8","1,0,0,1,0,0,0,0,0,0","5,6,2,1,9,4,8,3,10,7","4.1,2.0,3.3,0.2,2.2,4.0,0.4,3.4,1.3,1.1","4,4,8,5,1,4,2,9,1,2,,,,,,,,,,",6,3,1,0,4,4,4,Images/dart.png,dart,1,allStim,Grid1
9999999999,abcdefghijk,VSS-CONF-GLBLOC,1,7,2020-04-16T10:12:25-07:00,0.001669884,1,vssStim.csv,vssProcSimLocalOnly.csv,vss-sim-loc,"10 items presented simultaneously in a grid, with values 1-10, without tones (only local item-level confidence ratings)",Images/kettle.jpg|Images/microphone.GIF|Images/whistle.png|Images/football.png|Images/key.png|Images/dart.png|Images/trophy.jpg|Images/toy.jpg|Images/penny.png|Images/drum.png,kettle|microphone|whistle|football|key|dart|trophy|toy|penny|drum,3|2|4|7|6|1|10|5|9|8,allStim|allStim|allStim|allStim|allStim|allStim|allStim|allStim|allStim|allStim,Grid1|Grid1|Grid1|Grid1|Grid1|Grid1|Grid1|Grid1|Grid1|Grid1,2::11,vdrGridTestDALocal,user,,"Please place the items in their correct locations. If you do not remember exactly, please provide your best guess.",,off,103559,,,14351,92038,,,,1,,,4,4,8,5,1,4,2,9,1,2,undefined,-0.125,19,11,2,55,10,"4.1,0.0,3.4,0.2,0.3,3.0,1.4,3.3,1.1,2.1","3,2,4,7,6,1,10,5,9,8","1,0,0,1,0,0,0,0,0,0","5,6,2,1,9,4,8,3,10,7","4.1,2.0,3.3,0.2,2.2,4.0,0.4,3.4,1.3,1.1","4,4,8,5,1,4,2,9,1,2,,,,,,,,,,",2,0,2,0,6,2,4,Images/microphone.GIF,microphone,2,allStim,Grid1
9999999999,abcdefghijk,VSS-CONF-GLBLOC,1,7,2020-04-16T10:12:25-07:00,0.001540899,1,vssStim.csv,vssProcSimLocalOnly.csv,vss-sim-loc,"10 items presented simultaneously in a grid, with values 1-10, without tones (only local item-level confidence ratings)",Images/kettle.jpg|Images/microphone.GIF|Images/whistle.png|Images/football.png|Images/key.png|Images/dart.png|Images/trophy.jpg|Images/toy.jpg|Images/penny.png|Images/drum.png,kettle|microphone|whistle|football|key|dart|trophy|toy|penny|drum,3|2|4|7|6|1|10|5|9|8,allStim|allStim|allStim|allStim|allStim|allStim|allStim|allStim|allStim|allStim,Grid1|Grid1|Grid1|Grid1|Grid1|Grid1|Grid1|Grid1|Grid1|Grid1,2::11,vdrGridTestDALocal,user,,"Please place the items in their correct locations. If you do not remember exactly, please provide your best guess.",,off,103559,,,14351,92038,,,,1,,,4,4,8,5,1,4,2,9,1,2,undefined,-0.125,19,11,2,55,10,"4.1,0.0,3.4,0.2,0.3,3.0,1.4,3.3,1.1,2.1","3,2,4,7,6,1,10,5,9,8","1,0,0,1,0,0,0,0,0,0","5,6,2,1,9,4,8,3,10,7","4.1,2.0,3.3,0.2,2.2,4.0,0.4,3.4,1.3,1.1","4,4,8,5,1,4,2,9,1,2,,,,,,,,,,",1,4.1,3,1,5,4.1,4,Images/kettle.jpg,kettle,3,allStim,Grid1
9999999999,abcdefghijk,VSS-CONF-GLBLOC,1,7,2020-04-16T10:12:25-07:00,0.001548052,1,vssStim.csv,vssProcSimLocalOnly.csv,vss-sim-loc,"10 items presented simultaneously in a grid, with values 1-10, without tones (only local item-level confidence ratings)",Images/kettle.jpg|Images/microphone.GIF|Images/whistle.png|Images/football.png|Images/key.png|Images/dart.png|Images/trophy.jpg|Images/toy.jpg|Images/penny.png|Images/drum.png,kettle|microphone|whistle|football|key|dart|trophy|toy|penny|drum,3|2|4|7|6|1|10|5|9|8,allStim|allStim|allStim|allStim|allStim|allStim|allStim|allStim|allStim|allStim,Grid1|Grid1|Grid1|Grid1|Grid1|Grid1|Grid1|Grid1|Grid1|Grid1,2::11,vdrGridTestDALocal,user,,"Please place the items in their correct locations. If you do not remember exactly, please provide your best guess.",,off,103559,,,14351,92038,,,,1,,,4,4,8,5,1,4,2,9,1,2,undefined,-0.125,19,11,2,55,10,"4.1,0.0,3.4,0.2,0.3,3.0,1.4,3.3,1.1,2.1","3,2,4,7,6,1,10,5,9,8","1,0,0,1,0,0,0,0,0,0","5,6,2,1,9,4,8,3,10,7","4.1,2.0,3.3,0.2,2.2,4.0,0.4,3.4,1.3,1.1","4,4,8,5,1,4,2,9,1,2,,,,,,,,,,",3,3.4,4,0,2,3.3,8,Images/whistle.png,whistle,4,allStim,Grid1
9999999999,abcdefghijk,VSS-CONF-GLBLOC,1,7,2020-04-16T10:12:25-07:00,0.001713991,1,vssStim.csv,vssProcSimLocalOnly.csv,vss-sim-loc,"10 items presented simultaneously in a grid, with values 1-10, without tones (only local item-level confidence ratings)",Images/kettle.jpg|Images/microphone.GIF|Images/whistle.png|Images/football.png|Images/key.png|Images/dart.png|Images/trophy.jpg|Images/toy.jpg|Images/penny.png|Images/drum.png,kettle|microphone|whistle|football|key|dart|trophy|toy|penny|drum,3|2|4|7|6|1|10|5|9|8,allStim|allStim|allStim|allStim|allStim|allStim|allStim|allStim|allStim|allStim,Grid1|Grid1|Grid1|Grid1|Grid1|Grid1|Grid1|Grid1|Grid1|Grid1,2::11,vdrGridTestDALocal,user,,"Please place the items in their correct locations. If you do not remember exactly, please provide your best guess.",,off,103559,,,14351,92038,,,,1,,,4,4,8,5,1,4,2,9,1,2,undefined,-0.125,19,11,2,55,10,"4.1,0.0,3.4,0.2,0.3,3.0,1.4,3.3,1.1,2.1","3,2,4,7,6,1,10,5,9,8","1,0,0,1,0,0,0,0,0,0","5,6,2,1,9,4,8,3,10,7","4.1,2.0,3.3,0.2,2.2,4.0,0.4,3.4,1.3,1.1","4,4,8,5,1,4,2,9,1,2,,,,,,,,,,",8,3.3,5,0,3,3.4,9,Images/toy.jpg,toy,5,allStim,Grid1
9999999999,abcdefghijk,VSS-CONF-GLBLOC,1,7,2020-04-16T10:12:25-07:00,0.0017941,1,vssStim.csv,vssProcSimLocalOnly.csv,vss-sim-loc,"10 items presented simultaneously in a grid, with values 1-10, without tones (only local item-level confidence ratings)",Images/kettle.jpg|Images/microphone.GIF|Images/whistle.png|Images/football.png|Images/key.png|Images/dart.png|Images/trophy.jpg|Images/toy.jpg|Images/penny.png|Images/drum.png,kettle|microphone|whistle|football|key|dart|trophy|toy|penny|drum,3|2|4|7|6|1|10|5|9|8,allStim|allStim|allStim|allStim|allStim|allStim|allStim|allStim|allStim|allStim,Grid1|Grid1|Grid1|Grid1|Grid1|Grid1|Grid1|Grid1|Grid1|Grid1,2::11,vdrGridTestDALocal,user,,"Please place the items in their correct locations. If you do not remember exactly, please provide your best guess.",,off,103559,,,14351,92038,,,,1,,,4,4,8,5,1,4,2,9,1,2,undefined,-0.125,19,11,2,55,10,"4.1,0.0,3.4,0.2,0.3,3.0,1.4,3.3,1.1,2.1","3,2,4,7,6,1,10,5,9,8","1,0,0,1,0,0,0,0,0,0","5,6,2,1,9,4,8,3,10,7","4.1,2.0,3.3,0.2,2.2,4.0,0.4,3.4,1.3,1.1","4,4,8,5,1,4,2,9,1,2,,,,,,,,,,",5,0.3,6,0,9,2.2,1,Images/key.png,key,6,allStim,Grid1
9999999999,abcdefghijk,VSS-CONF-GLBLOC,1,7,2020-04-16T10:12:25-07:00,0.002038002,1,vssStim.csv,vssProcSimLocalOnly.csv,vss-sim-loc,"10 items presented simultaneously in a grid, with values 1-10, without tones (only local item-level confidence ratings)",Images/kettle.jpg|Images/microphone.GIF|Images/whistle.png|Images/football.png|Images/key.png|Images/dart.png|Images/trophy.jpg|Images/toy.jpg|Images/penny.png|Images/drum.png,kettle|microphone|whistle|football|key|dart|trophy|toy|penny|drum,3|2|4|7|6|1|10|5|9|8,allStim|allStim|allStim|allStim|allStim|allStim|allStim|allStim|allStim|allStim,Grid1|Grid1|Grid1|Grid1|Grid1|Grid1|Grid1|Grid1|Grid1|Grid1,2::11,vdrGridTestDALocal,user,,"Please place the items in their correct locations. If you do not remember exactly, please provide your best guess.",,off,103559,,,14351,92038,,,,1,,,4,4,8,5,1,4,2,9,1,2,undefined,-0.125,19,11,2,55,10,"4.1,0.0,3.4,0.2,0.3,3.0,1.4,3.3,1.1,2.1","3,2,4,7,6,1,10,5,9,8","1,0,0,1,0,0,0,0,0,0","5,6,2,1,9,4,8,3,10,7","4.1,2.0,3.3,0.2,2.2,4.0,0.4,3.4,1.3,1.1","4,4,8,5,1,4,2,9,1,2,,,,,,,,,,",4,0.2,7,1,1,0.2,5,Images/football.png,football,7,allStim,Grid1
9999999999,abcdefghijk,VSS-CONF-GLBLOC,1,7,2020-04-16T10:12:25-07:00,0.002119064,1,vssStim.csv,vssProcSimLocalOnly.csv,vss-sim-loc,"10 items presented simultaneously in a grid, with values 1-10, without tones (only local item-level confidence ratings)",Images/kettle.jpg|Images/microphone.GIF|Images/whistle.png|Images/football.png|Images/key.png|Images/dart.png|Images/trophy.jpg|Images/toy.jpg|Images/penny.png|Images/drum.png,kettle|microphone|whistle|football|key|dart|trophy|toy|penny|drum,3|2|4|7|6|1|10|5|9|8,allStim|allStim|allStim|allStim|allStim|allStim|allStim|allStim|allStim|allStim,Grid1|Grid1|Grid1|Grid1|Grid1|Grid1|Grid1|Grid1|Grid1|Grid1,2::11,vdrGridTestDALocal,user,,"Please place the items in their correct locations. If you do not remember exactly, please provide your best guess.",,off,103559,,,14351,92038,,,,1,,,4,4,8,5,1,4,2,9,1,2,undefined,-0.125,19,11,2,55,10,"4.1,0.0,3.4,0.2,0.3,3.0,1.4,3.3,1.1,2.1","3,2,4,7,6,1,10,5,9,8","1,0,0,1,0,0,0,0,0,0","5,6,2,1,9,4,8,3,10,7","4.1,2.0,3.3,0.2,2.2,4.0,0.4,3.4,1.3,1.1","4,4,8,5,1,4,2,9,1,2,,,,,,,,,,",10,2.1,8,0,7,1.1,2,Images/drum.png,drum,8,allStim,Grid1
9999999999,abcdefghijk,VSS-CONF-GLBLOC,1,7,2020-04-16T10:12:25-07:00,0.002213001,1,vssStim.csv,vssProcSimLocalOnly.csv,vss-sim-loc,"10 items presented simultaneously in a grid, with values 1-10, without tones (only local item-level confidence ratings)",Images/kettle.jpg|Images/microphone.GIF|Images/whistle.png|Images/football.png|Images/key.png|Images/dart.png|Images/trophy.jpg|Images/toy.jpg|Images/penny.png|Images/drum.png,kettle|microphone|whistle|football|key|dart|trophy|toy|penny|drum,3|2|4|7|6|1|10|5|9|8,allStim|allStim|allStim|allStim|allStim|allStim|allStim|allStim|allStim|allStim,Grid1|Grid1|Grid1|Grid1|Grid1|Grid1|Grid1|Grid1|Grid1|Grid1,2::11,vdrGridTestDALocal,user,,"Please place the items in their correct locations. If you do not remember exactly, please provide your best guess.",,off,103559,,,14351,92038,,,,1,,,4,4,8,5,1,4,2,9,1,2,undefined,-0.125,19,11,2,55,10,"4.1,0.0,3.4,0.2,0.3,3.0,1.4,3.3,1.1,2.1","3,2,4,7,6,1,10,5,9,8","1,0,0,1,0,0,0,0,0,0","5,6,2,1,9,4,8,3,10,7","4.1,2.0,3.3,0.2,2.2,4.0,0.4,3.4,1.3,1.1","4,4,8,5,1,4,2,9,1,2,,,,,,,,,,",9,1.1,9,0,10,1.3,1,Images/penny.png,penny,9,allStim,Grid1
9999999999,abcdefghijk,VSS-CONF-GLBLOC,1,7,2020-04-16T10:12:25-07:00,0.002337933,1,vssStim.csv,vssProcSimLocalOnly.csv,vss-sim-loc,"10 items presented simultaneously in a grid, with values 1-10, without tones (only local item-level confidence ratings)",Images/kettle.jpg|Images/microphone.GIF|Images/whistle.png|Images/football.png|Images/key.png|Images/dart.png|Images/trophy.jpg|Images/toy.jpg|Images/penny.png|Images/drum.png,kettle|microphone|whistle|football|key|dart|trophy|toy|penny|drum,3|2|4|7|6|1|10|5|9|8,allStim|allStim|allStim|allStim|allStim|allStim|allStim|allStim|allStim|allStim,Grid1|Grid1|Grid1|Grid1|Grid1|Grid1|Grid1|Grid1|Grid1|Grid1,2::11,vdrGridTestDALocal,user,,"Please place the items in their correct locations. If you do not remember exactly, please provide your best guess.",,off,103559,,,14351,92038,,,,1,,,4,4,8,5,1,4,2,9,1,2,undefined,-0.125,19,11,2,55,10,"4.1,0.0,3.4,0.2,0.3,3.0,1.4,3.3,1.1,2.1","3,2,4,7,6,1,10,5,9,8","1,0,0,1,0,0,0,0,0,0","5,6,2,1,9,4,8,3,10,7","4.1,2.0,3.3,0.2,2.2,4.0,0.4,3.4,1.3,1.1","4,4,8,5,1,4,2,9,1,2,,,,,,,,,,",7,1.4,10,0,8,0.4,2,Images/trophy.jpg,trophy,10,allStim,Grid1
9999999999,abcdefghijk,VSS-CONF-GLBLOC,1,8,2020-04-16T10:12:59-07:00,33.82311606,1,vssStim.csv,vssProcSimLocalOnly.csv,vss-sim-loc,"10 items presented simultaneously in a grid, with values 1-10, without tones (only local item-level confidence ratings)",Images/hammer.png|Images/shoe.png|Images/ball.png|Images/sailboat.jpg|Images/hat.png|Images/gift.GIF|Images/pen.bmp|Images/magnifying glass.GIF|Images/car.jpg|Images/flag.png,hammer|shoe|ball|sailboat|hat|gift|pen|magnifying glass|car|flag,7|6|4|2|10|8|5|3|9|1,allStim|allStim|allStim|allStim|allStim|allStim|allStim|allStim|allStim|allStim,Grid2|Grid2|Grid2|Grid2|Grid2|Grid2|Grid2|Grid2|Grid2|Grid2,12::21,vdrGridDA,user,,,"""isi"": 0, ""study protocol"": ""simultaneous"", ""tones"": ""off""",off,33508,,,-1,-1,,,,1,simultaneous,"[{""2"":5,""4"":6},{""0"":8,""3"":7},[0,1],{""4"":4,""2"":9},{""1"":3,""3"":2}]",,,,,,,,,,,,,,,,,,,,,,,,,,,,,,,,,,,
9999999999,abcdefghijk,VSS-CONF-GLBLOC,1,9,2020-04-16T10:15:51-07:00,172.0483229,1,vssStim.csv,vssProcSimLocalOnly.csv,vss-sim-loc,"10 items presented simultaneously in a grid, with values 1-10, without tones (only local item-level confidence ratings)",Images/hammer.png|Images/shoe.png|Images/ball.png|Images/sailboat.jpg|Images/hat.png|Images/gift.GIF|Images/pen.bmp|Images/magnifying glass.GIF|Images/car.jpg|Images/flag.png,hammer|shoe|ball|sailboat|hat|gift|pen|magnifying glass|car|flag,7|6|4|2|10|8|5|3|9|1,allStim|allStim|allStim|allStim|allStim|allStim|allStim|allStim|allStim|allStim,Grid2|Grid2|Grid2|Grid2|Grid2|Grid2|Grid2|Grid2|Grid2|Grid2,12::21,vdrGridTestDALocal,user,,"Please place the items in their correct locations. If you do not remember exactly, please provide your best guess.",,off,171505,,,14778,159025,,,,0.998,,,9,9,9,9,10,5,9,1,9,9,undefined,0.25,45,33,6,55,36,"2.3,1.2,3.4,1.4,4.3,3.1,4.0,0.2,0.1,2.0","7,6,4,2,10,8,5,3,9,1","0,1,1,1,1,0,1,0,1,0","7,10,6,8,5,2,3,9,1,4","0.2,1.2,3.4,1.4,4.3,2.0,4.0,3.1,0.1,2.3","9,9,9,9,10,5,9,1,9,9,,,,,,,,,,",10,2,1,0,4,2.3,9,Images/flag.png,flag,1,allStim,Grid2
9999999999,abcdefghijk,VSS-CONF-GLBLOC,1,9,2020-04-16T10:15:51-07:00,0.002963066,1,vssStim.csv,vssProcSimLocalOnly.csv,vss-sim-loc,"10 items presented simultaneously in a grid, with values 1-10, without tones (only local item-level confidence ratings)",Images/hammer.png|Images/shoe.png|Images/ball.png|Images/sailboat.jpg|Images/hat.png|Images/gift.GIF|Images/pen.bmp|Images/magnifying glass.GIF|Images/car.jpg|Images/flag.png,hammer|shoe|ball|sailboat|hat|gift|pen|magnifying glass|car|flag,7|6|4|2|10|8|5|3|9|1,allStim|allStim|allStim|allStim|allStim|allStim|allStim|allStim|allStim|allStim,Grid2|Grid2|Grid2|Grid2|Grid2|Grid2|Grid2|Grid2|Grid2|Grid2,12::21,vdrGridTestDALocal,user,,"Please place the items in their correct locations. If you do not remember exactly, please provide your best guess.",,off,171505,,,14778,159025,,,,0.998,,,9,9,9,9,10,5,9,1,9,9,undefined,0.25,45,33,6,55,36,"2.3,1.2,3.4,1.4,4.3,3.1,4.0,0.2,0.1,2.0","7,6,4,2,10,8,5,3,9,1","0,1,1,1,1,0,1,0,1,0","7,10,6,8,5,2,3,9,1,4","0.2,1.2,3.4,1.4,4.3,2.0,4.0,3.1,0.1,2.3","9,9,9,9,10,5,9,1,9,9,,,,,,,,,,",4,1.4,2,1,8,1.4,9,Images/sailboat.jpg,sailboat,2,allStim,Grid2
9999999999,abcdefghijk,VSS-CONF-GLBLOC,1,9,2020-04-16T10:15:51-07:00,0.002946854,1,vssStim.csv,vssProcSimLocalOnly.csv,vss-sim-loc,"10 items presented simultaneously in a grid, with values 1-10, without tones (only local item-level confidence ratings)",Images/hammer.png|Images/shoe.png|Images/ball.png|Images/sailboat.jpg|Images/hat.png|Images/gift.GIF|Images/pen.bmp|Images/magnifying glass.GIF|Images/car.jpg|Images/flag.png,hammer|shoe|ball|sailboat|hat|gift|pen|magnifying glass|car|flag,7|6|4|2|10|8|5|3|9|1,allStim|allStim|allStim|allStim|allStim|allStim|allStim|allStim|allStim|allStim,Grid2|Grid2|Grid2|Grid2|Grid2|Grid2|Grid2|Grid2|Grid2|Grid2,12::21,vdrGridTestDALocal,user,,"Please place the items in their correct locations. If you do not remember exactly, please provide your best guess.",,off,171505,,,14778,159025,,,,0.998,,,9,9,9,9,10,5,9,1,9,9,undefined,0.25,45,33,6,55,36,"2.3,1.2,3.4,1.4,4.3,3.1,4.0,0.2,0.1,2.0","7,6,4,2,10,8,5,3,9,1","0,1,1,1,1,0,1,0,1,0","7,10,6,8,5,2,3,9,1,4","0.2,1.2,3.4,1.4,4.3,2.0,4.0,3.1,0.1,2.3","9,9,9,9,10,5,9,1,9,9,,,,,,,,,,",8,0.2,3,0,9,3.1,1,Images/magnifying glass.GIF,magnifying glass,3,allStim,Grid2
9999999999,abcdefghijk,VSS-CONF-GLBLOC,1,9,2020-04-16T10:15:51-07:00,0.002995968,1,vssStim.csv,vssProcSimLocalOnly.csv,vss-sim-loc,"10 items presented simultaneously in a grid, with values 1-10, without tones (only local item-level confidence ratings)",Images/hammer.png|Images/shoe.png|Images/ball.png|Images/sailboat.jpg|Images/hat.png|Images/gift.GIF|Images/pen.bmp|Images/magnifying glass.GIF|Images/car.jpg|Images/flag.png,hammer|shoe|ball|sailboat|hat|gift|pen|magnifying glass|car|flag,7|6|4|2|10|8|5|3|9|1,allStim|allStim|allStim|allStim|allStim|allStim|allStim|allStim|allStim|allStim,Grid2|Grid2|Grid2|Grid2|Grid2|Grid2|Grid2|Grid2|Grid2|Grid2,12::21,vdrGridTestDALocal,user,,"Please place the items in their correct locations. If you do not remember exactly, please provide your best guess.",,off,171505,,,14778,159025,,,,0.998,,,9,9,9,9,10,5,9,1,9,9,undefined,0.25,45,33,6,55,36,"2.3,1.2,3.4,1.4,4.3,3.1,4.0,0.2,0.1,2.0","7,6,4,2,10,8,5,3,9,1","0,1,1,1,1,0,1,0,1,0","7,10,6,8,5,2,3,9,1,4","0.2,1.2,3.4,1.4,4.3,2.0,4.0,3.1,0.1,2.3","9,9,9,9,10,5,9,1,9,9,,,,,,,,,,",3,3.4,4,1,6,3.4,9,Images/ball.png,ball,4,allStim,Grid2
9999999999,abcdefghijk,VSS-CONF-GLBLOC,1,9,2020-04-16T10:15:51-07:00,0.003167152,1,vssStim.csv,vssProcSimLocalOnly.csv,vss-sim-loc,"10 items presented simultaneously in a grid, with values 1-10, without tones (only local item-level confidence ratings)",Images/hammer.png|Images/shoe.png|Images/ball.png|Images/sailboat.jpg|Images/hat.png|Images/gift.GIF|Images/pen.bmp|Images/magnifying glass.GIF|Images/car.jpg|Images/flag.png,hammer|shoe|ball|sailboat|hat|gift|pen|magnifying glass|car|flag,7|6|4|2|10|8|5|3|9|1,allStim|allStim|allStim|allStim|allStim|allStim|allStim|allStim|allStim|allStim,Grid2|Grid2|Grid2|Grid2|Grid2|Grid2|Grid2|Grid2|Grid2|Grid2,12::21,vdrGridTestDALocal,user,,"Please place the items in their correct locations. If you do not remember exactly, please provide your best guess.",,off,171505,,,14778,159025,,,,0.998,,,9,9,9,9,10,5,9,1,9,9,undefined,0.25,45,33,6,55,36,"2.3,1.2,3.4,1.4,4.3,3.1,4.0,0.2,0.1,2.0","7,6,4,2,10,8,5,3,9,1","0,1,1,1,1,0,1,0,1,0","7,10,6,8,5,2,3,9,1,4","0.2,1.2,3.4,1.4,4.3,2.0,4.0,3.1,0.1,2.3","9,9,9,9,10,5,9,1,9,9,,,,,,,,,,",7,4,5,1,3,4,9,Images/pen.bmp,pen,5,allStim,Grid2
9999999999,abcdefghijk,VSS-CONF-GLBLOC,1,9,2020-04-16T10:15:51-07:00,0.003572941,1,vssStim.csv,vssProcSimLocalOnly.csv,vss-sim-loc,"10 items presented simultaneously in a grid, with values 1-10, without tones (only local item-level confidence ratings)",Images/hammer.png|Images/shoe.png|Images/ball.png|Images/sailboat.jpg|Images/hat.png|Images/gift.GIF|Images/pen.bmp|Images/magnifying glass.GIF|Images/car.jpg|Images/flag.png,hammer|shoe|ball|sailboat|hat|gift|pen|magnifying glass|car|flag,7|6|4|2|10|8|5|3|9|1,allStim|allStim|allStim|allStim|allStim|allStim|allStim|allStim|allStim|allStim,Grid2|Grid2|Grid2|Grid2|Grid2|Grid2|Grid2|Grid2|Grid2|Grid2,12::21,vdrGridTestDALocal,user,,"Please place the items in their correct locations. If you do not remember exactly, please provide your best guess.",,off,171505,,,14778,159025,,,,0.998,,,9,9,9,9,10,5,9,1,9,9,undefined,0.25,45,33,6,55,36,"2.3,1.2,3.4,1.4,4.3,3.1,4.0,0.2,0.1,2.0","7,6,4,2,10,8,5,3,9,1","0,1,1,1,1,0,1,0,1,0","7,10,6,8,5,2,3,9,1,4","0.2,1.2,3.4,1.4,4.3,2.0,4.0,3.1,0.1,2.3","9,9,9,9,10,5,9,1,9,9,,,,,,,,,,",2,1.2,6,1,10,1.2,9,Images/shoe.png,shoe,6,allStim,Grid2
9999999999,abcdefghijk,VSS-CONF-GLBLOC,1,9,2020-04-16T10:15:51-07:00,0.003431082,1,vssStim.csv,vssProcSimLocalOnly.csv,vss-sim-loc,"10 items presented simultaneously in a grid, with values 1-10, without tones (only local item-level confidence ratings)",Images/hammer.png|Images/shoe.png|Images/ball.png|Images/sailboat.jpg|Images/hat.png|Images/gift.GIF|Images/pen.bmp|Images/magnifying glass.GIF|Images/car.jpg|Images/flag.png,hammer|shoe|ball|sailboat|hat|gift|pen|magnifying glass|car|flag,7|6|4|2|10|8|5|3|9|1,allStim|allStim|allStim|allStim|allStim|allStim|allStim|allStim|allStim|allStim,Grid2|Grid2|Grid2|Grid2|Grid2|Grid2|Grid2|Grid2|Grid2|Grid2,12::21,vdrGridTestDALocal,user,,"Please place the items in their correct locations. If you do not remember exactly, please provide your best guess.",,off,171505,,,14778,159025,,,,0.998,,,9,9,9,9,10,5,9,1,9,9,undefined,0.25,45,33,6,55,36,"2.3,1.2,3.4,1.4,4.3,3.1,4.0,0.2,0.1,2.0","7,6,4,2,10,8,5,3,9,1","0,1,1,1,1,0,1,0,1,0","7,10,6,8,5,2,3,9,1,4","0.2,1.2,3.4,1.4,4.3,2.0,4.0,3.1,0.1,2.3","9,9,9,9,10,5,9,1,9,9,,,,,,,,,,",1,2.3,7,0,7,0.2,9,Images/hammer.png,hammer,7,allStim,Grid2
9999999999,abcdefghijk,VSS-CONF-GLBLOC,1,9,2020-04-16T10:15:51-07:00,0.003587008,1,vssStim.csv,vssProcSimLocalOnly.csv,vss-sim-loc,"10 items presented simultaneously in a grid, with values 1-10, without tones (only local item-level confidence ratings)",Images/hammer.png|Images/shoe.png|Images/ball.png|Images/sailboat.jpg|Images/hat.png|Images/gift.GIF|Images/pen.bmp|Images/magnifying glass.GIF|Images/car.jpg|Images/flag.png,hammer|shoe|ball|sailboat|hat|gift|pen|magnifying glass|car|flag,7|6|4|2|10|8|5|3|9|1,allStim|allStim|allStim|allStim|allStim|allStim|allStim|allStim|allStim|allStim,Grid2|Grid2|Grid2|Grid2|Grid2|Grid2|Grid2|Grid2|Grid2|Grid2,12::21,vdrGridTestDALocal,user,,"Please place the items in their correct locations. If you do not remember exactly, please provide your best guess.",,off,171505,,,14778,159025,,,,0.998,,,9,9,9,9,10,5,9,1,9,9,undefined,0.25,45,33,6,55,36,"2.3,1.2,3.4,1.4,4.3,3.1,4.0,0.2,0.1,2.0","7,6,4,2,10,8,5,3,9,1","0,1,1,1,1,0,1,0,1,0","7,10,6,8,5,2,3,9,1,4","0.2,1.2,3.4,1.4,4.3,2.0,4.0,3.1,0.1,2.3","9,9,9,9,10,5,9,1,9,9,,,,,,,,,,",6,3.1,8,0,2,2,5,Images/gift.GIF,gift,8,allStim,Grid2
9999999999,abcdefghijk,VSS-CONF-GLBLOC,1,9,2020-04-16T10:15:51-07:00,0.003676891,1,vssStim.csv,vssProcSimLocalOnly.csv,vss-sim-loc,"10 items presented simultaneously in a grid, with values 1-10, without tones (only local item-level confidence ratings)",Images/hammer.png|Images/shoe.png|Images/ball.png|Images/sailboat.jpg|Images/hat.png|Images/gift.GIF|Images/pen.bmp|Images/magnifying glass.GIF|Images/car.jpg|Images/flag.png,hammer|shoe|ball|sailboat|hat|gift|pen|magnifying glass|car|flag,7|6|4|2|10|8|5|3|9|1,allStim|allStim|allStim|allStim|allStim|allStim|allStim|allStim|allStim|allStim,Grid2|Grid2|Grid2|Grid2|Grid2|Grid2|Grid2|Grid2|Grid2|Grid2,12::21,vdrGridTestDALocal,user,,"Please place the items in their correct locations. If you do not remember exactly, please provide your best guess.",,off,171505,,,14778,159025,,,,0.998,,,9,9,9,9,10,5,9,1,9,9,undefined,0.25,45,33,6,55,36,"2.3,1.2,3.4,1.4,4.3,3.1,4.0,0.2,0.1,2.0","7,6,4,2,10,8,5,3,9,1","0,1,1,1,1,0,1,0,1,0","7,10,6,8,5,2,3,9,1,4","0.2,1.2,3.4,1.4,4.3,2.0,4.0,3.1,0.1,2.3","9,9,9,9,10,5,9,1,9,9,,,,,,,,,,",9,0.1,9,1,1,0.1,9,Images/car.jpg,car,9,allStim,Grid2
9999999999,abcdefghijk,VSS-CONF-GLBLOC,1,9,2020-04-16T10:15:51-07:00,0.003787041,1,vssStim.csv,vssProcSimLocalOnly.csv,vss-sim-loc,"10 items presented simultaneously in a grid, with values 1-10, without tones (only local item-level confidence ratings)",Images/hammer.png|Images/shoe.png|Images/ball.png|Images/sailboat.jpg|Images/hat.png|Images/gift.GIF|Images/pen.bmp|Images/magnifying glass.GIF|Images/car.jpg|Images/flag.png,hammer|shoe|ball|sailboat|hat|gift|pen|magnifying glass|car|flag,7|6|4|2|10|8|5|3|9|1,allStim|allStim|allStim|allStim|allStim|allStim|allStim|allStim|allStim|allStim,Grid2|Grid2|Grid2|Grid2|Grid2|Grid2|Grid2|Grid2|Grid2|Grid2,12::21,vdrGridTestDALocal,user,,"Please place the items in their correct locations. If you do not remember exactly, please provide your best guess.",,off,171505,,,14778,159025,,,,0.998,,,9,9,9,9,10,5,9,1,9,9,undefined,0.25,45,33,6,55,36,"2.3,1.2,3.4,1.4,4.3,3.1,4.0,0.2,0.1,2.0","7,6,4,2,10,8,5,3,9,1","0,1,1,1,1,0,1,0,1,0","7,10,6,8,5,2,3,9,1,4","0.2,1.2,3.4,1.4,4.3,2.0,4.0,3.1,0.1,2.3","9,9,9,9,10,5,9,1,9,9,,,,,,,,,,",5,4.3,10,1,5,4.3,10,Images/hat.png,hat,10,allStim,Grid2
9999999999,abcdefghijk,VSS-CONF-GLBLOC,1,10,2020-04-16T10:16:25-07:00,33.82162094,1,vssStim.csv,vssProcSimLocalOnly.csv,vss-sim-loc,"10 items presented simultaneously in a grid, with values 1-10, without tones (only local item-level confidence ratings)",Images/watch.png|Images/crutches.jpg|Images/lamp.png|Images/bowl.jpg|Images/salt.png|Images/bread.png|Images/basket.png|Images/camera.png|Images/wrench.png|Images/glasses.png,watch|crutches|lamp|bowl|salt|bread|basket|camera|wrench|glasses,2|10|8|3|5|4|6|9|7|1,allStim|allStim|allStim|allStim|allStim|allStim|allStim|allStim|allStim|allStim,Grid3|Grid3|Grid3|Grid3|Grid3|Grid3|Grid3|Grid3|Grid3|Grid3,22::31,vdrGridDA,user,,,"""isi"": 0, ""study protocol"": ""simultaneous"", ""tones"": ""off""",off,33509,,,-1,-1,,,,1,simultaneous,"[{""1"":4,""2"":2},{""0"":0,""3"":1},{""4"":7,""2"":9},{""0"":8,""3"":6},{""1"":3,""4"":5}]",,,,,,,,,,,,,,,,,,,,,,,,,,,,,,,,,,,
9999999999,abcdefghijk,VSS-CONF-GLBLOC,1,11,2020-04-16T10:18:13-07:00,107.738678,1,vssStim.csv,vssProcSimLocalOnly.csv,vss-sim-loc,"10 items presented simultaneously in a grid, with values 1-10, without tones (only local item-level confidence ratings)",Images/watch.png|Images/crutches.jpg|Images/lamp.png|Images/bowl.jpg|Images/salt.png|Images/bread.png|Images/basket.png|Images/camera.png|Images/wrench.png|Images/glasses.png,watch|crutches|lamp|bowl|salt|bread|basket|camera|wrench|glasses,2|10|8|3|5|4|6|9|7|1,allStim|allStim|allStim|allStim|allStim|allStim|allStim|allStim|allStim|allStim,Grid3|Grid3|Grid3|Grid3|Grid3|Grid3|Grid3|Grid3|Grid3|Grid3,22::31,vdrGridTestDALocal,user,,"Please place the items in their correct locations. If you do not remember exactly, please provide your best guess.",,off,107141,,,11514,97728,,,,0.994,,,9,10,2,9,9,2,9,9,10,10,undefined,-0.12,40,27.5,5,55,26,"0.1,3.1,2.2,1.4,1.0,0.3,3.3,2.0,4.4,4.2","2,10,8,3,5,4,6,9,7,1","1,1,0,1,1,0,1,0,0,0","3,6,8,5,2,9,4,1,10,7","0.1,3.1,2.0,1.4,1.0,4.4,3.3,4.2,0.3,2.2","9,10,2,9,9,2,9,9,10,10,,,,,,,,,,",10,4.2,1,0,7,2.2,10,Images/glasses.png,glasses,1,allStim,Grid3
9999999999,abcdefghijk,VSS-CONF-GLBLOC,1,11,2020-04-16T10:18:13-07:00,0.004323959,1,vssStim.csv,vssProcSimLocalOnly.csv,vss-sim-loc,"10 items presented simultaneously in a grid, with values 1-10, without tones (only local item-level confidence ratings)",Images/watch.png|Images/crutches.jpg|Images/lamp.png|Images/bowl.jpg|Images/salt.png|Images/bread.png|Images/basket.png|Images/camera.png|Images/wrench.png|Images/glasses.png,watch|crutches|lamp|bowl|salt|bread|basket|camera|wrench|glasses,2|10|8|3|5|4|6|9|7|1,allStim|allStim|allStim|allStim|allStim|allStim|allStim|allStim|allStim|allStim,Grid3|Grid3|Grid3|Grid3|Grid3|Grid3|Grid3|Grid3|Grid3|Grid3,22::31,vdrGridTestDALocal,user,,"Please place the items in their correct locations. If you do not remember exactly, please provide your best guess.",,off,107141,,,11514,97728,,,,0.994,,,9,10,2,9,9,2,9,9,10,10,undefined,-0.12,40,27.5,5,55,26,"0.1,3.1,2.2,1.4,1.0,0.3,3.3,2.0,4.4,4.2","2,10,8,3,5,4,6,9,7,1","1,1,0,1,1,0,1,0,0,0","3,6,8,5,2,9,4,1,10,7","0.1,3.1,2.0,1.4,1.0,4.4,3.3,4.2,0.3,2.2","9,10,2,9,9,2,9,9,10,10,,,,,,,,,,",1,0.1,2,1,3,0.1,9,Images/watch.png,watch,2,allStim,Grid3
9999999999,abcdefghijk,VSS-CONF-GLBLOC,1,11,2020-04-16T10:18:13-07:00,0.004359007,1,vssStim.csv,vssProcSimLocalOnly.csv,vss-sim-loc,"10 items presented simultaneously in a grid, with values 1-10, without tones (only local item-level confidence ratings)",Images/watch.png|Images/crutches.jpg|Images/lamp.png|Images/bowl.jpg|Images/salt.png|Images/bread.png|Images/basket.png|Images/camera.png|Images/wrench.png|Images/glasses.png,watch|crutches|lamp|bowl|salt|bread|basket|camera|wrench|glasses,2|10|8|3|5|4|6|9|7|1,allStim|allStim|allStim|allStim|allStim|allStim|allStim|allStim|allStim|allStim,Grid3|Grid3|Grid3|Grid3|Grid3|Grid3|Grid3|Grid3|Grid3|Grid3,22::31,vdrGridTestDALocal,user,,"Please place the items in their correct locations. If you do not remember exactly, please provide your best guess.",,off,107141,,,11514,97728,,,,0.994,,,9,10,2,9,9,2,9,9,10,10,undefined,-0.12,40,27.5,5,55,26,"0.1,3.1,2.2,1.4,1.0,0.3,3.3,2.0,4.4,4.2","2,10,8,3,5,4,6,9,7,1","1,1,0,1,1,0,1,0,0,0","3,6,8,5,2,9,4,1,10,7","0.1,3.1,2.0,1.4,1.0,4.4,3.3,4.2,0.3,2.2","9,10,2,9,9,2,9,9,10,10,,,,,,,,,,",4,1.4,3,1,5,1.4,9,Images/bowl.jpg,bowl,3,allStim,Grid3
9999999999,abcdefghijk,VSS-CONF-GLBLOC,1,11,2020-04-16T10:18:13-07:00,0.004414082,1,vssStim.csv,vssProcSimLocalOnly.csv,vss-sim-loc,"10 items presented simultaneously in a grid, with values 1-10, without tones (only local item-level confidence ratings)",Images/watch.png|Images/crutches.jpg|Images/lamp.png|Images/bowl.jpg|Images/salt.png|Images/bread.png|Images/basket.png|Images/camera.png|Images/wrench.png|Images/glasses.png,watch|crutches|lamp|bowl|salt|bread|basket|camera|wrench|glasses,2|10|8|3|5|4|6|9|7|1,allStim|allStim|allStim|allStim|allStim|allStim|allStim|allStim|allStim|allStim,Grid3|Grid3|Grid3|Grid3|Grid3|Grid3|Grid3|Grid3|Grid3|Grid3,22::31,vdrGridTestDALocal,user,,"Please place the items in their correct locations. If you do not remember exactly, please provide your best guess.",,off,107141,,,11514,97728,,,,0.994,,,9,10,2,9,9,2,9,9,10,10,undefined,-0.12,40,27.5,5,55,26,"0.1,3.1,2.2,1.4,1.0,0.3,3.3,2.0,4.4,4.2","2,10,8,3,5,4,6,9,7,1","1,1,0,1,1,0,1,0,0,0","3,6,8,5,2,9,4,1,10,7","0.1,3.1,2.0,1.4,1.0,4.4,3.3,4.2,0.3,2.2","9,10,2,9,9,2,9,9,10,10,,,,,,,,,,",6,0.3,4,0,9,4.4,2,Images/bread.png,bread,4,allStim,Grid3
9999999999,abcdefghijk,VSS-CONF-GLBLOC,1,11,2020-04-16T10:18:13-07:00,0.00454998,1,vssStim.csv,vssProcSimLocalOnly.csv,vss-sim-loc,"10 items presented simultaneously in a grid, with values 1-10, without tones (only local item-level confidence ratings)",Images/watch.png|Images/crutches.jpg|Images/lamp.png|Images/bowl.jpg|Images/salt.png|Images/bread.png|Images/basket.png|Images/camera.png|Images/wrench.png|Images/glasses.png,watch|crutches|lamp|bowl|salt|bread|basket|camera|wrench|glasses,2|10|8|3|5|4|6|9|7|1,allStim|allStim|allStim|allStim|allStim|allStim|allStim|allStim|allStim|allStim,Grid3|Grid3|Grid3|Grid3|Grid3|Grid3|Grid3|Grid3|Grid3|Grid3,22::31,vdrGridTestDALocal,user,,"Please place the items in their correct locations. If you do not remember exactly, please provide your best guess.",,off,107141,,,11514,97728,,,,0.994,,,9,10,2,9,9,2,9,9,10,10,undefined,-0.12,40,27.5,5,55,26,"0.1,3.1,2.2,1.4,1.0,0.3,3.3,2.0,4.4,4.2","2,10,8,3,5,4,6,9,7,1","1,1,0,1,1,0,1,0,0,0","3,6,8,5,2,9,4,1,10,7","0.1,3.1,2.0,1.4,1.0,4.4,3.3,4.2,0.3,2.2","9,10,2,9,9,2,9,9,10,10,,,,,,,,,,",5,1,5,1,2,1,9,Images/salt.png,salt,5,allStim,Grid3
9999999999,abcdefghijk,VSS-CONF-GLBLOC,1,11,2020-04-16T10:18:13-07:00,0.004668951,1,vssStim.csv,vssProcSimLocalOnly.csv,vss-sim-loc,"10 items presented simultaneously in a grid, with values 1-10, without tones (only local item-level confidence ratings)",Images/watch.png|Images/crutches.jpg|Images/lamp.png|Images/bowl.jpg|Images/salt.png|Images/bread.png|Images/basket.png|Images/camera.png|Images/wrench.png|Images/glasses.png,watch|crutches|lamp|bowl|salt|bread|basket|camera|wrench|glasses,2|10|8|3|5|4|6|9|7|1,allStim|allStim|allStim|allStim|allStim|allStim|allStim|allStim|allStim|allStim,Grid3|Grid3|Grid3|Grid3|Grid3|Grid3|Grid3|Grid3|Grid3|Grid3,22::31,vdrGridTestDALocal,user,,"Please place the items in their correct locations. If you do not remember exactly, please provide your best guess.",,off,107141,,,11514,97728,,,,0.994,,,9,10,2,9,9,2,9,9,10,10,undefined,-0.12,40,27.5,5,55,26,"0.1,3.1,2.2,1.4,1.0,0.3,3.3,2.0,4.4,4.2","2,10,8,3,5,4,6,9,7,1","1,1,0,1,1,0,1,0,0,0","3,6,8,5,2,9,4,1,10,7","0.1,3.1,2.0,1.4,1.0,4.4,3.3,4.2,0.3,2.2","9,10,2,9,9,2,9,9,10,10,,,,,,,,,,",7,3.3,6,1,4,3.3,9,Images/basket.png,basket,6,allStim,Grid3
9999999999,abcdefghijk,VSS-CONF-GLBLOC,1,11,2020-04-16T10:18:13-07:00,0.005316019,1,vssStim.csv,vssProcSimLocalOnly.csv,vss-sim-loc,"10 items presented simultaneously in a grid, with values 1-10, without tones (only local item-level confidence ratings)",Images/watch.png|Images/crutches.jpg|Images/lamp.png|Images/bowl.jpg|Images/salt.png|Images/bread.png|Images/basket.png|Images/camera.png|Images/wrench.png|Images/glasses.png,watch|crutches|lamp|bowl|salt|bread|basket|camera|wrench|glasses,2|10|8|3|5|4|6|9|7|1,allStim|allStim|allStim|allStim|allStim|allStim|allStim|allStim|allStim|allStim,Grid3|Grid3|Grid3|Grid3|Grid3|Grid3|Grid3|Grid3|Grid3|Grid3,22::31,vdrGridTestDALocal,user,,"Please place the items in their correct locations. If you do not remember exactly, please provide your best guess.",,off,107141,,,11514,97728,,,,0.994,,,9,10,2,9,9,2,9,9,10,10,undefined,-0.12,40,27.5,5,55,26,"0.1,3.1,2.2,1.4,1.0,0.3,3.3,2.0,4.4,4.2","2,10,8,3,5,4,6,9,7,1","1,1,0,1,1,0,1,0,0,0","3,6,8,5,2,9,4,1,10,7","0.1,3.1,2.0,1.4,1.0,4.4,3.3,4.2,0.3,2.2","9,10,2,9,9,2,9,9,10,10,,,,,,,,,,",9,4.4,7,0,10,0.3,10,Images/wrench.png,wrench,7,allStim,Grid3
9999999999,abcdefghijk,VSS-CONF-GLBLOC,1,11,2020-04-16T10:18:13-07:00,0.005134106,1,vssStim.csv,vssProcSimLocalOnly.csv,vss-sim-loc,"10 items presented simultaneously in a grid, with values 1-10, without tones (only local item-level confidence ratings)",Images/watch.png|Images/crutches.jpg|Images/lamp.png|Images/bowl.jpg|Images/salt.png|Images/bread.png|Images/basket.png|Images/camera.png|Images/wrench.png|Images/glasses.png,watch|crutches|lamp|bowl|salt|bread|basket|camera|wrench|glasses,2|10|8|3|5|4|6|9|7|1,allStim|allStim|allStim|allStim|allStim|allStim|allStim|allStim|allStim|allStim,Grid3|Grid3|Grid3|Grid3|Grid3|Grid3|Grid3|Grid3|Grid3|Grid3,22::31,vdrGridTestDALocal,user,,"Please place the items in their correct locations. If you do not remember exactly, please provide your best guess.",,off,107141,,,11514,97728,,,,0.994,,,9,10,2,9,9,2,9,9,10,10,undefined,-0.12,40,27.5,5,55,26,"0.1,3.1,2.2,1.4,1.0,0.3,3.3,2.0,4.4,4.2","2,10,8,3,5,4,6,9,7,1","1,1,0,1,1,0,1,0,0,0","3,6,8,5,2,9,4,1,10,7","0.1,3.1,2.0,1.4,1.0,4.4,3.3,4.2,0.3,2.2","9,10,2,9,9,2,9,9,10,10,,,,,,,,,,",3,2.2,8,0,8,2,2,Images/lamp.png,lamp,8,allStim,Grid3
9999999999,abcdefghijk,VSS-CONF-GLBLOC,1,11,2020-04-16T10:18:13-07:00,0.00510788,1,vssStim.csv,vssProcSimLocalOnly.csv,vss-sim-loc,"10 items presented simultaneously in a grid, with values 1-10, without tones (only local item-level confidence ratings)",Images/watch.png|Images/crutches.jpg|Images/lamp.png|Images/bowl.jpg|Images/salt.png|Images/bread.png|Images/basket.png|Images/camera.png|Images/wrench.png|Images/glasses.png,watch|crutches|lamp|bowl|salt|bread|basket|camera|wrench|glasses,2|10|8|3|5|4|6|9|7|1,allStim|allStim|allStim|allStim|allStim|allStim|allStim|allStim|allStim|allStim,Grid3|Grid3|Grid3|Grid3|Grid3|Grid3|Grid3|Grid3|Grid3|Grid3,22::31,vdrGridTestDALocal,user,,"Please place the items in their correct locations. If you do not remember exactly, please provide your best guess.",,off,107141,,,11514,97728,,,,0.994,,,9,10,2,9,9,2,9,9,10,10,undefined,-0.12,40,27.5,5,55,26,"0.1,3.1,2.2,1.4,1.0,0.3,3.3,2.0,4.4,4.2","2,10,8,3,5,4,6,9,7,1","1,1,0,1,1,0,1,0,0,0","3,6,8,5,2,9,4,1,10,7","0.1,3.1,2.0,1.4,1.0,4.4,3.3,4.2,0.3,2.2","9,10,2,9,9,2,9,9,10,10,,,,,,,,,,",8,2,9,0,1,4.2,9,Images/camera.png,camera,9,allStim,Grid3
9999999999,abcdefghijk,VSS-CONF-GLBLOC,1,11,2020-04-16T10:18:13-07:00,0.005288124,1,vssStim.csv,vssProcSimLocalOnly.csv,vss-sim-loc,"10 items presented simultaneously in a grid, with values 1-10, without tones (only local item-level confidence ratings)",Images/watch.png|Images/crutches.jpg|Images/lamp.png|Images/bowl.jpg|Images/salt.png|Images/bread.png|Images/basket.png|Images/camera.png|Images/wrench.png|Images/glasses.png,watch|crutches|lamp|bowl|salt|bread|basket|camera|wrench|glasses,2|10|8|3|5|4|6|9|7|1,allStim|allStim|allStim|allStim|allStim|allStim|allStim|allStim|allStim|allStim,Grid3|Grid3|Grid3|Grid3|Grid3|Grid3|Grid3|Grid3|Grid3|Grid3,22::31,vdrGridTestDALocal,user,,"Please place the items in their correct locations. If you do not remember exactly, please provide your best guess.",,off,107141,,,11514,97728,,,,0.994,,,9,10,2,9,9,2,9,9,10,10,undefined,-0.12,40,27.5,5,55,26,"0.1,3.1,2.2,1.4,1.0,0.3,3.3,2.0,4.4,4.2","2,10,8,3,5,4,6,9,7,1","1,1,0,1,1,0,1,0,0,0","3,6,8,5,2,9,4,1,10,7","0.1,3.1,2.0,1.4,1.0,4.4,3.3,4.2,0.3,2.2","9,10,2,9,9,2,9,9,10,10,,,,,,,,,,",2,3.1,10,1,6,3.1,10,Images/crutches.jpg,crutches,10,allStim,Grid3
9999999999,abcdefghijk,VSS-CONF-GLBLOC,1,12,2020-04-16T10:18:47-07:00,33.82755494,1,vssStim.csv,vssProcSimLocalOnly.csv,vss-sim-loc,"10 items presented simultaneously in a grid, with values 1-10, without tones (only local item-level confidence ratings)",Images/guitar.png|Images/rollingpin.png|Images/garbage.jpg|Images/bell.png|Images/cake.jpg|Images/clock.jpg|Images/lipstick.png|Images/radio.jpg|Images/screw.png|Images/pencil.jpg,guitar|rollingpin|garbage|bell|cake|clock|lipstick|radio|screw|pencil,4|8|3|10|9|2|7|6|1|5,allStim|allStim|allStim|allStim|allStim|allStim|allStim|allStim|allStim|allStim,Grid4|Grid4|Grid4|Grid4|Grid4|Grid4|Grid4|Grid4|Grid4|Grid4,32::41,vdrGridDA,user,,,"""isi"": 0, ""study protocol"": ""simultaneous"", ""tones"": ""off""",off,33507,,,-1,-1,,,,1,simultaneous,"[{""0"":2,""3"":7},{""2"":9,""0"":3},{""3"":8,""1"":1},{""2"":5,""4"":4},{""4"":0,""1"":6}]",,,,,,,,,,,,,,,,,,,,,,,,,,,,,,,,,,,
9999999999,abcdefghijk,VSS-CONF-GLBLOC,1,13,2020-04-16T10:21:01-07:00,133.9261301,1,vssStim.csv,vssProcSimLocalOnly.csv,vss-sim-loc,"10 items presented simultaneously in a grid, with values 1-10, without tones (only local item-level confidence ratings)",Images/guitar.png|Images/rollingpin.png|Images/garbage.jpg|Images/bell.png|Images/cake.jpg|Images/clock.jpg|Images/lipstick.png|Images/radio.jpg|Images/screw.png|Images/pencil.jpg,guitar|rollingpin|garbage|bell|cake|clock|lipstick|radio|screw|pencil,4|8|3|10|9|2|7|6|1|5,allStim|allStim|allStim|allStim|allStim|allStim|allStim|allStim|allStim|allStim,Grid4|Grid4|Grid4|Grid4|Grid4|Grid4|Grid4|Grid4|Grid4|Grid4,32::41,vdrGridTestDALocal,user,,"Please place the items in their correct locations. If you do not remember exactly, please provide your best guess.",,off,133302,,,10748,122289,,,,1,,,1,9,9,9,9,9,9,9,9,9,undefined,0.333333333,27,16.5,3,55,20,"4.4,0.2,3.4,1.3,4.3,2.2,1.4,2.0,3.1,1.1","4,8,3,10,9,2,7,6,1,5","1,0,0,0,1,0,1,0,0,0","10,1,9,6,7,5,8,3,4,2","4.4,1.2,0.0,0.1,4.3,2.3,1.4,3.0,3.2,2.1","1,9,9,9,9,9,9,9,9,9,,,,,,,,,,",9,3.1,1,0,4,3.2,9,Images/screw.png,screw,1,allStim,Grid4
9999999999,abcdefghijk,VSS-CONF-GLBLOC,1,13,2020-04-16T10:21:01-07:00,0.005887032,1,vssStim.csv,vssProcSimLocalOnly.csv,vss-sim-loc,"10 items presented simultaneously in a grid, with values 1-10, without tones (only local item-level confidence ratings)",Images/guitar.png|Images/rollingpin.png|Images/garbage.jpg|Images/bell.png|Images/cake.jpg|Images/clock.jpg|Images/lipstick.png|Images/radio.jpg|Images/screw.png|Images/pencil.jpg,guitar|rollingpin|garbage|bell|cake|clock|lipstick|radio|screw|pencil,4|8|3|10|9|2|7|6|1|5,allStim|allStim|allStim|allStim|allStim|allStim|allStim|allStim|allStim|allStim,Grid4|Grid4|Grid4|Grid4|Grid4|Grid4|Grid4|Grid4|Grid4|Grid4,32::41,vdrGridTestDALocal,user,,"Please place the items in their correct locations. If you do not remember exactly, please provide your best guess.",,off,133302,,,10748,122289,,,,1,,,1,9,9,9,9,9,9,9,9,9,undefined,0.333333333,27,16.5,3,55,20,"4.4,0.2,3.4,1.3,4.3,2.2,1.4,2.0,3.1,1.1","4,8,3,10,9,2,7,6,1,5","1,0,0,0,1,0,1,0,0,0","10,1,9,6,7,5,8,3,4,2","4.4,1.2,0.0,0.1,4.3,2.3,1.4,3.0,3.2,2.1","1,9,9,9,9,9,9,9,9,9,,,,,,,,,,",6,2.2,2,0,5,2.3,9,Images/clock.jpg,clock,2,allStim,Grid4
9999999999,abcdefghijk,VSS-CONF-GLBLOC,1,13,2020-04-16T10:21:01-07:00,0.005985975,1,vssStim.csv,vssProcSimLocalOnly.csv,vss-sim-loc,"10 items presented simultaneously in a grid, with values 1-10, without tones (only local item-level confidence ratings)",Images/guitar.png|Images/rollingpin.png|Images/garbage.jpg|Images/bell.png|Images/cake.jpg|Images/clock.jpg|Images/lipstick.png|Images/radio.jpg|Images/screw.png|Images/pencil.jpg,guitar|rollingpin|garbage|bell|cake|clock|lipstick|radio|screw|pencil,4|8|3|10|9|2|7|6|1|5,allStim|allStim|allStim|allStim|allStim|allStim|allStim|allStim|allStim|allStim,Grid4|Grid4|Grid4|Grid4|Grid4|Grid4|Grid4|Grid4|Grid4|Grid4,32::41,vdrGridTestDALocal,user,,"Please place the items in their correct locations. If you do not remember exactly, please provide your best guess.",,off,133302,,,10748,122289,,,,1,,,1,9,9,9,9,9,9,9,9,9,undefined,0.333333333,27,16.5,3,55,20,"4.4,0.2,3.4,1.3,4.3,2.2,1.4,2.0,3.1,1.1","4,8,3,10,9,2,7,6,1,5","1,0,0,0,1,0,1,0,0,0","10,1,9,6,7,5,8,3,4,2","4.4,1.2,0.0,0.1,4.3,2.3,1.4,3.0,3.2,2.1","1,9,9,9,9,9,9,9,9,9,,,,,,,,,,",3,3.4,3,0,9,0,9,Images/garbage.jpg,garbage,3,allStim,Grid4
9999999999,abcdefghijk,VSS-CONF-GLBLOC,1,13,2020-04-16T10:21:01-07:00,0.005930901,1,vssStim.csv,vssProcSimLocalOnly.csv,vss-sim-loc,"10 items presented simultaneously in a grid, with values 1-10, without tones (only local item-level confidence ratings)",Images/guitar.png|Images/rollingpin.png|Images/garbage.jpg|Images/bell.png|Images/cake.jpg|Images/clock.jpg|Images/lipstick.png|Images/radio.jpg|Images/screw.png|Images/pencil.jpg,guitar|rollingpin|garbage|bell|cake|clock|lipstick|radio|screw|pencil,4|8|3|10|9|2|7|6|1|5,allStim|allStim|allStim|allStim|allStim|allStim|allStim|allStim|allStim|allStim,Grid4|Grid4|Grid4|Grid4|Grid4|Grid4|Grid4|Grid4|Grid4|Grid4,32::41,vdrGridTestDALocal,user,,"Please place the items in their correct locations. If you do not remember exactly, please provide your best guess.",,off,133302,,,10748,122289,,,,1,,,1,9,9,9,9,9,9,9,9,9,undefined,0.333333333,27,16.5,3,55,20,"4.4,0.2,3.4,1.3,4.3,2.2,1.4,2.0,3.1,1.1","4,8,3,10,9,2,7,6,1,5","1,0,0,0,1,0,1,0,0,0","10,1,9,6,7,5,8,3,4,2","4.4,1.2,0.0,0.1,4.3,2.3,1.4,3.0,3.2,2.1","1,9,9,9,9,9,9,9,9,9,,,,,,,,,,",1,4.4,4,1,10,4.4,1,Images/guitar.png,guitar,4,allStim,Grid4
9999999999,abcdefghijk,VSS-CONF-GLBLOC,1,13,2020-04-16T10:21:01-07:00,0.006072044,1,vssStim.csv,vssProcSimLocalOnly.csv,vss-sim-loc,"10 items presented simultaneously in a grid, with values 1-10, without tones (only local item-level confidence ratings)",Images/guitar.png|Images/rollingpin.png|Images/garbage.jpg|Images/bell.png|Images/cake.jpg|Images/clock.jpg|Images/lipstick.png|Images/radio.jpg|Images/screw.png|Images/pencil.jpg,guitar|rollingpin|garbage|bell|cake|clock|lipstick|radio|screw|pencil,4|8|3|10|9|2|7|6|1|5,allStim|allStim|allStim|allStim|allStim|allStim|allStim|allStim|allStim|allStim,Grid4|Grid4|Grid4|Grid4|Grid4|Grid4|Grid4|Grid4|Grid4|Grid4,32::41,vdrGridTestDALocal,user,,"Please place the items in their correct locations. If you do not remember exactly, please provide your best guess.",,off,133302,,,10748,122289,,,,1,,,1,9,9,9,9,9,9,9,9,9,undefined,0.333333333,27,16.5,3,55,20,"4.4,0.2,3.4,1.3,4.3,2.2,1.4,2.0,3.1,1.1","4,8,3,10,9,2,7,6,1,5","1,0,0,0,1,0,1,0,0,0","10,1,9,6,7,5,8,3,4,2","4.4,1.2,0.0,0.1,4.3,2.3,1.4,3.0,3.2,2.1","1,9,9,9,9,9,9,9,9,9,,,,,,,,,,",10,1.1,5,0,2,2.1,9,Images/pencil.jpg,pencil,5,allStim,Grid4
9999999999,abcdefghijk,VSS-CONF-GLBLOC,1,13,2020-04-16T10:21:01-07:00,0.006211042,1,vssStim.csv,vssProcSimLocalOnly.csv,vss-sim-loc,"10 items presented simultaneously in a grid, with values 1-10, without tones (only local item-level confidence ratings)",Images/guitar.png|Images/rollingpin.png|Images/garbage.jpg|Images/bell.png|Images/cake.jpg|Images/clock.jpg|Images/lipstick.png|Images/radio.jpg|Images/screw.png|Images/pencil.jpg,guitar|rollingpin|garbage|bell|cake|clock|lipstick|radio|screw|pencil,4|8|3|10|9|2|7|6|1|5,allStim|allStim|allStim|allStim|allStim|allStim|allStim|allStim|allStim|allStim,Grid4|Grid4|Grid4|Grid4|Grid4|Grid4|Grid4|Grid4|Grid4|Grid4,32::41,vdrGridTestDALocal,user,,"Please place the items in their correct locations. If you do not remember exactly, please provide your best guess.",,off,133302,,,10748,122289,,,,1,,,1,9,9,9,9,9,9,9,9,9,undefined,0.333333333,27,16.5,3,55,20,"4.4,0.2,3.4,1.3,4.3,2.2,1.4,2.0,3.1,1.1","4,8,3,10,9,2,7,6,1,5","1,0,0,0,1,0,1,0,0,0","10,1,9,6,7,5,8,3,4,2","4.4,1.2,0.0,0.1,4.3,2.3,1.4,3.0,3.2,2.1","1,9,9,9,9,9,9,9,9,9,,,,,,,,,,",8,2,6,0,3,3,9,Images/radio.jpg,radio,6,allStim,Grid4
9999999999,abcdefghijk,VSS-CONF-GLBLOC,1,13,2020-04-16T10:21:01-07:00,0.006386995,1,vssStim.csv,vssProcSimLocalOnly.csv,vss-sim-loc,"10 items presented simultaneously in a grid, with values 1-10, without tones (only local item-level confidence ratings)",Images/guitar.png|Images/rollingpin.png|Images/garbage.jpg|Images/bell.png|Images/cake.jpg|Images/clock.jpg|Images/lipstick.png|Images/radio.jpg|Images/screw.png|Images/pencil.jpg,guitar|rollingpin|garbage|bell|cake|clock|lipstick|radio|screw|pencil,4|8|3|10|9|2|7|6|1|5,allStim|allStim|allStim|allStim|allStim|allStim|allStim|allStim|allStim|allStim,Grid4|Grid4|Grid4|Grid4|Grid4|Grid4|Grid4|Grid4|Grid4|Grid4,32::41,vdrGridTestDALocal,user,,"Please place the items in their correct locations. If you do not remember exactly, please provide your best guess.",,off,133302,,,10748,122289,,,,1,,,1,9,9,9,9,9,9,9,9,9,undefined,0.333333333,27,16.5,3,55,20,"4.4,0.2,3.4,1.3,4.3,2.2,1.4,2.0,3.1,1.1","4,8,3,10,9,2,7,6,1,5","1,0,0,0,1,0,1,0,0,0","10,1,9,6,7,5,8,3,4,2","4.4,1.2,0.0,0.1,4.3,2.3,1.4,3.0,3.2,2.1","1,9,9,9,9,9,9,9,9,9,,,,,,,,,,",7,1.4,7,1,8,1.4,9,Images/lipstick.png,lipstick,7,allStim,Grid4
9999999999,abcdefghijk,VSS-CONF-GLBLOC,1,13,2020-04-16T10:21:01-07:00,0.006519079,1,vssStim.csv,vssProcSimLocalOnly.csv,vss-sim-loc,"10 items presented simultaneously in a grid, with values 1-10, without tones (only local item-level confidence ratings)",Images/guitar.png|Images/rollingpin.png|Images/garbage.jpg|Images/bell.png|Images/cake.jpg|Images/clock.jpg|Images/lipstick.png|Images/radio.jpg|Images/screw.png|Images/pencil.jpg,guitar|rollingpin|garbage|bell|cake|clock|lipstick|radio|screw|pencil,4|8|3|10|9|2|7|6|1|5,allStim|allStim|allStim|allStim|allStim|allStim|allStim|allStim|allStim|allStim,Grid4|Grid4|Grid4|Grid4|Grid4|Grid4|Grid4|Grid4|Grid4|Grid4,32::41,vdrGridTestDALocal,user,,"Please place the items in their correct locations. If you do not remember exactly, please provide your best guess.",,off,133302,,,10748,122289,,,,1,,,1,9,9,9,9,9,9,9,9,9,undefined,0.333333333,27,16.5,3,55,20,"4.4,0.2,3.4,1.3,4.3,2.2,1.4,2.0,3.1,1.1","4,8,3,10,9,2,7,6,1,5","1,0,0,0,1,0,1,0,0,0","10,1,9,6,7,5,8,3,4,2","4.4,1.2,0.0,0.1,4.3,2.3,1.4,3.0,3.2,2.1","1,9,9,9,9,9,9,9,9,9,,,,,,,,,,",2,0.2,8,0,1,1.2,9,Images/rollingpin.png,rollingpin,8,allStim,Grid4
9999999999,abcdefghijk,VSS-CONF-GLBLOC,1,13,2020-04-16T10:21:01-07:00,0.006750822,1,vssStim.csv,vssProcSimLocalOnly.csv,vss-sim-loc,"10 items presented simultaneously in a grid, with values 1-10, without tones (only local item-level confidence ratings)",Images/guitar.png|Images/rollingpin.png|Images/garbage.jpg|Images/bell.png|Images/cake.jpg|Images/clock.jpg|Images/lipstick.png|Images/radio.jpg|Images/screw.png|Images/pencil.jpg,guitar|rollingpin|garbage|bell|cake|clock|lipstick|radio|screw|pencil,4|8|3|10|9|2|7|6|1|5,allStim|allStim|allStim|allStim|allStim|allStim|allStim|allStim|allStim|allStim,Grid4|Grid4|Grid4|Grid4|Grid4|Grid4|Grid4|Grid4|Grid4|Grid4,32::41,vdrGridTestDALocal,user,,"Please place the items in their correct locations. If you do not remember exactly, please provide your best guess.",,off,133302,,,10748,122289,,,,1,,,1,9,9,9,9,9,9,9,9,9,undefined,0.333333333,27,16.5,3,55,20,"4.4,0.2,3.4,1.3,4.3,2.2,1.4,2.0,3.1,1.1","4,8,3,10,9,2,7,6,1,5","1,0,0,0,1,0,1,0,0,0","10,1,9,6,7,5,8,3,4,2","4.4,1.2,0.0,0.1,4.3,2.3,1.4,3.0,3.2,2.1","1,9,9,9,9,9,9,9,9,9,,,,,,,,,,",5,4.3,9,1,7,4.3,9,Images/cake.jpg,cake,9,allStim,Grid4
9999999999,abcdefghijk,VSS-CONF-GLBLOC,1,13,2020-04-16T10:21:01-07:00,0.006859064,1,vssStim.csv,vssProcSimLocalOnly.csv,vss-sim-loc,"10 items presented simultaneously in a grid, with values 1-10, without tones (only local item-level confidence ratings)",Images/guitar.png|Images/rollingpin.png|Images/garbage.jpg|Images/bell.png|Images/cake.jpg|Images/clock.jpg|Images/lipstick.png|Images/radio.jpg|Images/screw.png|Images/pencil.jpg,guitar|rollingpin|garbage|bell|cake|clock|lipstick|radio|screw|pencil,4|8|3|10|9|2|7|6|1|5,allStim|allStim|allStim|allStim|allStim|allStim|allStim|allStim|allStim|allStim,Grid4|Grid4|Grid4|Grid4|Grid4|Grid4|Grid4|Grid4|Grid4|Grid4,32::41,vdrGridTestDALocal,user,,"Please place the items in their correct locations. If you do not remember exactly, please provide your best guess.",,off,133302,,,10748,122289,,,,1,,,1,9,9,9,9,9,9,9,9,9,undefined,0.333333333,27,16.5,3,55,20,"4.4,0.2,3.4,1.3,4.3,2.2,1.4,2.0,3.1,1.1","4,8,3,10,9,2,7,6,1,5","1,0,0,0,1,0,1,0,0,0","10,1,9,6,7,5,8,3,4,2","4.4,1.2,0.0,0.1,4.3,2.3,1.4,3.0,3.2,2.1","1,9,9,9,9,9,9,9,9,9,,,,,,,,,,",4,1.3,10,0,6,0.1,9,Images/bell.png,bell,10,allStim,Grid4
9999999999,abcdefghijk,VSS-CONF-GLBLOC,1,14,2020-04-16T10:21:34-07:00,33.83282495,1,vssStim.csv,vssProcSimLocalOnly.csv,vss-sim-loc,"10 items presented simultaneously in a grid, with values 1-10, without tones (only local item-level confidence ratings)",Images/flower.jpg|Images/card.GIF|Images/match.GIF|Images/mushroom.png|Images/pants.png|Images/scissors.jpg|Images/cup.png|Images/balloon.png|Images/bed.jpg|Images/broom.png,flower|card|match|mushroom|pants|scissors|cup|balloon|bed|broom,6|8|2|9|3|5|1|4|10|7,allStim|allStim|allStim|allStim|allStim|allStim|allStim|allStim|allStim|allStim,Grid5|Grid5|Grid5|Grid5|Grid5|Grid5|Grid5|Grid5|Grid5|Grid5,42::51,vdrGridDA,user,,,"""isi"": 0, ""study protocol"": ""simultaneous"", ""tones"": ""off""",off,33508,,,-1,-1,,,,1,simultaneous,"[{""1"":2,""4"":5},{""1"":8,""3"":4},{""4"":6,""3"":9},{""2"":7,""0"":3},{""0"":1,""2"":0}]",,,,,,,,,,,,,,,,,,,,,,,,,,,,,,,,,,,
9999999999,abcdefghijk,VSS-CONF-GLBLOC,1,15,2020-04-16T10:23:21-07:00,106.9466751,1,vssStim.csv,vssProcSimLocalOnly.csv,vss-sim-loc,"10 items presented simultaneously in a grid, with values 1-10, without tones (only local item-level confidence ratings)",Images/flower.jpg|Images/card.GIF|Images/match.GIF|Images/mushroom.png|Images/pants.png|Images/scissors.jpg|Images/cup.png|Images/balloon.png|Images/bed.jpg|Images/broom.png,flower|card|match|mushroom|pants|scissors|cup|balloon|bed|broom,6|8|2|9|3|5|1|4|10|7,allStim|allStim|allStim|allStim|allStim|allStim|allStim|allStim|allStim|allStim,Grid5|Grid5|Grid5|Grid5|Grid5|Grid5|Grid5|Grid5|Grid5|Grid5,42::51,vdrGridTestDALocal,user,,"Please place the items in their correct locations. If you do not remember exactly, please provide your best guess.",,off,106318,,,10260,78389,,,,0.998,,,9,9,9,8,9,9,9,9,9,9,undefined,0.111111111,54,49.5,9,55,50,"2.4,0.4,1.0,0.3,3.1,3.0,4.2,2.3,1.1,3.2","6,8,2,9,3,5,1,4,10,7","1,1,1,1,1,0,1,1,1,1","6,5,8,9,1,2,4,10,7,3","2.4,0.4,1.0,0.3,3.1,4.0,4.2,2.3,1.1,3.2","9,9,9,8,9,9,9,9,9,9,,,,,,,,,,",7,4.2,1,1,4,4.2,9,Images/cup.png,cup,1,allStim,Grid5
9999999999,abcdefghijk,VSS-CONF-GLBLOC,1,15,2020-04-16T10:23:21-07:00,0.007373095,1,vssStim.csv,vssProcSimLocalOnly.csv,vss-sim-loc,"10 items presented simultaneously in a grid, with values 1-10, without tones (only local item-level confidence ratings)",Images/flower.jpg|Images/card.GIF|Images/match.GIF|Images/mushroom.png|Images/pants.png|Images/scissors.jpg|Images/cup.png|Images/balloon.png|Images/bed.jpg|Images/broom.png,flower|card|match|mushroom|pants|scissors|cup|balloon|bed|broom,6|8|2|9|3|5|1|4|10|7,allStim|allStim|allStim|allStim|allStim|allStim|allStim|allStim|allStim|allStim,Grid5|Grid5|Grid5|Grid5|Grid5|Grid5|Grid5|Grid5|Grid5|Grid5,42::51,vdrGridTestDALocal,user,,"Please place the items in their correct locations. If you do not remember exactly, please provide your best guess.",,off,106318,,,10260,78389,,,,0.998,,,9,9,9,8,9,9,9,9,9,9,undefined,0.111111111,54,49.5,9,55,50,"2.4,0.4,1.0,0.3,3.1,3.0,4.2,2.3,1.1,3.2","6,8,2,9,3,5,1,4,10,7","1,1,1,1,1,0,1,1,1,1","6,5,8,9,1,2,4,10,7,3","2.4,0.4,1.0,0.3,3.1,4.0,4.2,2.3,1.1,3.2","9,9,9,8,9,9,9,9,9,9,,,,,,,,,,",3,1,2,1,8,1,9,Images/match.GIF,match,2,allStim,Grid5
9999999999,abcdefghijk,VSS-CONF-GLBLOC,1,15,2020-04-16T10:23:21-07:00,0.007551908,1,vssStim.csv,vssProcSimLocalOnly.csv,vss-sim-loc,"10 items presented simultaneously in a grid, with values 1-10, without tones (only local item-level confidence ratings)",Images/flower.jpg|Images/card.GIF|Images/match.GIF|Images/mushroom.png|Images/pants.png|Images/scissors.jpg|Images/cup.png|Images/balloon.png|Images/bed.jpg|Images/broom.png,flower|card|match|mushroom|pants|scissors|cup|balloon|bed|broom,6|8|2|9|3|5|1|4|10|7,allStim|allStim|allStim|allStim|allStim|allStim|allStim|allStim|allStim|allStim,Grid5|Grid5|Grid5|Grid5|Grid5|Grid5|Grid5|Grid5|Grid5|Grid5,42::51,vdrGridTestDALocal,user,,"Please place the items in their correct locations. If you do not remember exactly, please provide your best guess.",,off,106318,,,10260,78389,,,,0.998,,,9,9,9,8,9,9,9,9,9,9,undefined,0.111111111,54,49.5,9,55,50,"2.4,0.4,1.0,0.3,3.1,3.0,4.2,2.3,1.1,3.2","6,8,2,9,3,5,1,4,10,7","1,1,1,1,1,0,1,1,1,1","6,5,8,9,1,2,4,10,7,3","2.4,0.4,1.0,0.3,3.1,4.0,4.2,2.3,1.1,3.2","9,9,9,8,9,9,9,9,9,9,,,,,,,,,,",5,3.1,3,1,1,3.1,9,Images/pants.png,pants,3,allStim,Grid5
9999999999,abcdefghijk,VSS-CONF-GLBLOC,1,15,2020-04-16T10:23:21-07:00,0.00751996,1,vssStim.csv,vssProcSimLocalOnly.csv,vss-sim-loc,"10 items presented simultaneously in a grid, with values 1-10, without tones (only local item-level confidence ratings)",Images/flower.jpg|Images/card.GIF|Images/match.GIF|Images/mushroom.png|Images/pants.png|Images/scissors.jpg|Images/cup.png|Images/balloon.png|Images/bed.jpg|Images/broom.png,flower|card|match|mushroom|pants|scissors|cup|balloon|bed|broom,6|8|2|9|3|5|1|4|10|7,allStim|allStim|allStim|allStim|allStim|allStim|allStim|allStim|allStim|allStim,Grid5|Grid5|Grid5|Grid5|Grid5|Grid5|Grid5|Grid5|Grid5|Grid5,42::51,vdrGridTestDALocal,user,,"Please place the items in their correct locations. If you do not remember exactly, please provide your best guess.",,off,106318,,,10260,78389,,,,0.998,,,9,9,9,8,9,9,9,9,9,9,undefined,0.111111111,54,49.5,9,55,50,"2.4,0.4,1.0,0.3,3.1,3.0,4.2,2.3,1.1,3.2","6,8,2,9,3,5,1,4,10,7","1,1,1,1,1,0,1,1,1,1","6,5,8,9,1,2,4,10,7,3","2.4,0.4,1.0,0.3,3.1,4.0,4.2,2.3,1.1,3.2","9,9,9,8,9,9,9,9,9,9,,,,,,,,,,",8,2.3,4,1,10,2.3,9,Images/balloon.png,balloon,4,allStim,Grid5
9999999999,abcdefghijk,VSS-CONF-GLBLOC,1,15,2020-04-16T10:23:21-07:00,0.007632017,1,vssStim.csv,vssProcSimLocalOnly.csv,vss-sim-loc,"10 items presented simultaneously in a grid, with values 1-10, without tones (only local item-level confidence ratings)",Images/flower.jpg|Images/card.GIF|Images/match.GIF|Images/mushroom.png|Images/pants.png|Images/scissors.jpg|Images/cup.png|Images/balloon.png|Images/bed.jpg|Images/broom.png,flower|card|match|mushroom|pants|scissors|cup|balloon|bed|broom,6|8|2|9|3|5|1|4|10|7,allStim|allStim|allStim|allStim|allStim|allStim|allStim|allStim|allStim|allStim,Grid5|Grid5|Grid5|Grid5|Grid5|Grid5|Grid5|Grid5|Grid5|Grid5,42::51,vdrGridTestDALocal,user,,"Please place the items in their correct locations. If you do not remember exactly, please provide your best guess.",,off,106318,,,10260,78389,,,,0.998,,,9,9,9,8,9,9,9,9,9,9,undefined,0.111111111,54,49.5,9,55,50,"2.4,0.4,1.0,0.3,3.1,3.0,4.2,2.3,1.1,3.2","6,8,2,9,3,5,1,4,10,7","1,1,1,1,1,0,1,1,1,1","6,5,8,9,1,2,4,10,7,3","2.4,0.4,1.0,0.3,3.1,4.0,4.2,2.3,1.1,3.2","9,9,9,8,9,9,9,9,9,9,,,,,,,,,,",6,3,5,0,2,4,9,Images/scissors.jpg,scissors,5,allStim,Grid5
9999999999,abcdefghijk,VSS-CONF-GLBLOC,1,15,2020-04-16T10:23:21-07:00,0.007749081,1,vssStim.csv,vssProcSimLocalOnly.csv,vss-sim-loc,"10 items presented simultaneously in a grid, with values 1-10, without tones (only local item-level confidence ratings)",Images/flower.jpg|Images/card.GIF|Images/match.GIF|Images/mushroom.png|Images/pants.png|Images/scissors.jpg|Images/cup.png|Images/balloon.png|Images/bed.jpg|Images/broom.png,flower|card|match|mushroom|pants|scissors|cup|balloon|bed|broom,6|8|2|9|3|5|1|4|10|7,allStim|allStim|allStim|allStim|allStim|allStim|allStim|allStim|allStim|allStim,Grid5|Grid5|Grid5|Grid5|Grid5|Grid5|Grid5|Grid5|Grid5|Grid5,42::51,vdrGridTestDALocal,user,,"Please place the items in their correct locations. If you do not remember exactly, please provide your best guess.",,off,106318,,,10260,78389,,,,0.998,,,9,9,9,8,9,9,9,9,9,9,undefined,0.111111111,54,49.5,9,55,50,"2.4,0.4,1.0,0.3,3.1,3.0,4.2,2.3,1.1,3.2","6,8,2,9,3,5,1,4,10,7","1,1,1,1,1,0,1,1,1,1","6,5,8,9,1,2,4,10,7,3","2.4,0.4,1.0,0.3,3.1,4.0,4.2,2.3,1.1,3.2","9,9,9,8,9,9,9,9,9,9,,,,,,,,,,",1,2.4,6,1,6,2.4,9,Images/flower.jpg,flower,6,allStim,Grid5
9999999999,abcdefghijk,VSS-CONF-GLBLOC,1,15,2020-04-16T10:23:21-07:00,0.007925987,1,vssStim.csv,vssProcSimLocalOnly.csv,vss-sim-loc,"10 items presented simultaneously in a grid, with values 1-10, without tones (only local item-level confidence ratings)",Images/flower.jpg|Images/card.GIF|Images/match.GIF|Images/mushroom.png|Images/pants.png|Images/scissors.jpg|Images/cup.png|Images/balloon.png|Images/bed.jpg|Images/broom.png,flower|card|match|mushroom|pants|scissors|cup|balloon|bed|broom,6|8|2|9|3|5|1|4|10|7,allStim|allStim|allStim|allStim|allStim|allStim|allStim|allStim|allStim|allStim,Grid5|Grid5|Grid5|Grid5|Grid5|Grid5|Grid5|Grid5|Grid5|Grid5,42::51,vdrGridTestDALocal,user,,"Please place the items in their correct locations. If you do not remember exactly, please provide your best guess.",,off,106318,,,10260,78389,,,,0.998,,,9,9,9,8,9,9,9,9,9,9,undefined,0.111111111,54,49.5,9,55,50,"2.4,0.4,1.0,0.3,3.1,3.0,4.2,2.3,1.1,3.2","6,8,2,9,3,5,1,4,10,7","1,1,1,1,1,0,1,1,1,1","6,5,8,9,1,2,4,10,7,3","2.4,0.4,1.0,0.3,3.1,4.0,4.2,2.3,1.1,3.2","9,9,9,8,9,9,9,9,9,9,,,,,,,,,,",10,3.2,7,1,3,3.2,9,Images/broom.png,broom,7,allStim,Grid5
9999999999,abcdefghijk,VSS-CONF-GLBLOC,1,15,2020-04-16T10:23:21-07:00,0.008249044,1,vssStim.csv,vssProcSimLocalOnly.csv,vss-sim-loc,"10 items presented simultaneously in a grid, with values 1-10, without tones (only local item-level confidence ratings)",Images/flower.jpg|Images/card.GIF|Images/match.GIF|Images/mushroom.png|Images/pants.png|Images/scissors.jpg|Images/cup.png|Images/balloon.png|Images/bed.jpg|Images/broom.png,flower|card|match|mushroom|pants|scissors|cup|balloon|bed|broom,6|8|2|9|3|5|1|4|10|7,allStim|allStim|allStim|allStim|allStim|allStim|allStim|allStim|allStim|allStim,Grid5|Grid5|Grid5|Grid5|Grid5|Grid5|Grid5|Grid5|Grid5|Grid5,42::51,vdrGridTestDALocal,user,,"Please place the items in their correct locations. If you do not remember exactly, please provide your best guess.",,off,106318,,,10260,78389,,,,0.998,,,9,9,9,8,9,9,9,9,9,9,undefined,0.111111111,54,49.5,9,55,50,"2.4,0.4,1.0,0.3,3.1,3.0,4.2,2.3,1.1,3.2","6,8,2,9,3,5,1,4,10,7","1,1,1,1,1,0,1,1,1,1","6,5,8,9,1,2,4,10,7,3","2.4,0.4,1.0,0.3,3.1,4.0,4.2,2.3,1.1,3.2","9,9,9,8,9,9,9,9,9,9,,,,,,,,,,",2,0.4,8,1,5,0.4,9,Images/card.GIF,card,8,allStim,Grid5
9999999999,abcdefghijk,VSS-CONF-GLBLOC,1,15,2020-04-16T10:23:21-07:00,0.008089781,1,vssStim.csv,vssProcSimLocalOnly.csv,vss-sim-loc,"10 items presented simultaneously in a grid, with values 1-10, without tones (only local item-level confidence ratings)",Images/flower.jpg|Images/card.GIF|Images/match.GIF|Images/mushroom.png|Images/pants.png|Images/scissors.jpg|Images/cup.png|Images/balloon.png|Images/bed.jpg|Images/broom.png,flower|card|match|mushroom|pants|scissors|cup|balloon|bed|broom,6|8|2|9|3|5|1|4|10|7,allStim|allStim|allStim|allStim|allStim|allStim|allStim|allStim|allStim|allStim,Grid5|Grid5|Grid5|Grid5|Grid5|Grid5|Grid5|Grid5|Grid5|Grid5,42::51,vdrGridTestDALocal,user,,"Please place the items in their correct locations. If you do not remember exactly, please provide your best guess.",,off,106318,,,10260,78389,,,,0.998,,,9,9,9,8,9,9,9,9,9,9,undefined,0.111111111,54,49.5,9,55,50,"2.4,0.4,1.0,0.3,3.1,3.0,4.2,2.3,1.1,3.2","6,8,2,9,3,5,1,4,10,7","1,1,1,1,1,0,1,1,1,1","6,5,8,9,1,2,4,10,7,3","2.4,0.4,1.0,0.3,3.1,4.0,4.2,2.3,1.1,3.2","9,9,9,8,9,9,9,9,9,9,,,,,,,,,,",4,0.3,9,1,9,0.3,8,Images/mushroom.png,mushroom,9,allStim,Grid5
9999999999,abcdefghijk,VSS-CONF-GLBLOC,1,15,2020-04-16T10:23:21-07:00,0.008368015,1,vssStim.csv,vssProcSimLocalOnly.csv,vss-sim-loc,"10 items presented simultaneously in a grid, with values 1-10, without tones (only local item-level confidence ratings)",Images/flower.jpg|Images/card.GIF|Images/match.GIF|Images/mushroom.png|Images/pants.png|Images/scissors.jpg|Images/cup.png|Images/balloon.png|Images/bed.jpg|Images/broom.png,flower|card|match|mushroom|pants|scissors|cup|balloon|bed|broom,6|8|2|9|3|5|1|4|10|7,allStim|allStim|allStim|allStim|allStim|allStim|allStim|allStim|allStim|allStim,Grid5|Grid5|Grid5|Grid5|Grid5|Grid5|Grid5|Grid5|Grid5|Grid5,42::51,vdrGridTestDALocal,user,,"Please place the items in their correct locations. If you do not remember exactly, please provide your best guess.",,off,106318,,,10260,78389,,,,0.998,,,9,9,9,8,9,9,9,9,9,9,undefined,0.111111111,54,49.5,9,55,50,"2.4,0.4,1.0,0.3,3.1,3.0,4.2,2.3,1.1,3.2","6,8,2,9,3,5,1,4,10,7","1,1,1,1,1,0,1,1,1,1","6,5,8,9,1,2,4,10,7,3","2.4,0.4,1.0,0.3,3.1,4.0,4.2,2.3,1.1,3.2","9,9,9,8,9,9,9,9,9,9,,,,,,,,,,",9,1.1,10,1,7,1.1,9,Images/bed.jpg,bed,10,allStim,Grid5
9999999999,abcdefghijk,VSS-CONF-GLBLOC,1,16,2020-04-16T10:23:55-07:00,33.83566022,1,vssStim.csv,vssProcSimLocalOnly.csv,vss-sim-loc,"10 items presented simultaneously in a grid, with values 1-10, without tones (only local item-level confidence ratings)",Images/binder.GIF|Images/calculator.GIF|Images/gun.png|Images/record player.png|Images/cd.GIF|Images/lightbulb.png|Images/door.jpg|Images/slippers.bmp|Images/belt.png|Images/book.png,binder|calculator|gun|record player|cd|lightbulb|door|slippers|belt|book,7|5|4|3|1|6|10|8|2|9,allStim|allStim|allStim|allStim|allStim|allStim|allStim|allStim|allStim|allStim,Grid6|Grid6|Grid6|Grid6|Grid6|Grid6|Grid6|Grid6|Grid6|Grid6,52::61,vdrGridDA,user,,,"""isi"": 0, ""study protocol"": ""simultaneous"", ""tones"": ""off""",off,33506,,,-1,-1,,,,1,simultaneous,"[{""4"":6,""0"":9},{""2"":1,""0"":2},{""4"":4,""2"":8},{""1"":3,""3"":5},{""1"":7,""3"":0}]",,,,,,,,,,,,,,,,,,,,,,,,,,,,,,,,,,,
9999999999,abcdefghijk,VSS-CONF-GLBLOC,1,17,2020-04-16T10:25:27-07:00,91.32461286,1,vssStim.csv,vssProcSimLocalOnly.csv,vss-sim-loc,"10 items presented simultaneously in a grid, with values 1-10, without tones (only local item-level confidence ratings)",Images/binder.GIF|Images/calculator.GIF|Images/gun.png|Images/record player.png|Images/cd.GIF|Images/lightbulb.png|Images/door.jpg|Images/slippers.bmp|Images/belt.png|Images/book.png,binder|calculator|gun|record player|cd|lightbulb|door|slippers|belt|book,7|5|4|3|1|6|10|8|2|9,allStim|allStim|allStim|allStim|allStim|allStim|allStim|allStim|allStim|allStim,Grid6|Grid6|Grid6|Grid6|Grid6|Grid6|Grid6|Grid6|Grid6|Grid6,52::61,vdrGridTestDALocal,user,,"Please place the items in their correct locations. If you do not remember exactly, please provide your best guess.",,off,90643,,,3290,83594,,,,1,,,10,9,1,10,10,9,1,10,10,1,undefined,0.238095238,49,38.5,7,55,41,"3.4,3.3,0.1,2.1,4.2,1.3,4.0,1.4,2.2,0.0","7,5,4,3,1,6,10,8,2,9","1,0,1,0,1,0,1,1,1,1","4,6,9,5,1,7,10,2,3,8","3.4,2.1,0.1,1.3,4.2,3.3,4.0,1.4,2.2,0.0","10,9,1,10,10,9,1,10,10,1,,,,,,,,,,",5,4.2,1,1,1,4.2,10,Images/cd.GIF,cd,1,allStim,Grid6
9999999999,abcdefghijk,VSS-CONF-GLBLOC,1,17,2020-04-16T10:25:27-07:00,0.009001017,1,vssStim.csv,vssProcSimLocalOnly.csv,vss-sim-loc,"10 items presented simultaneously in a grid, with values 1-10, without tones (only local item-level confidence ratings)",Images/binder.GIF|Images/calculator.GIF|Images/gun.png|Images/record player.png|Images/cd.GIF|Images/lightbulb.png|Images/door.jpg|Images/slippers.bmp|Images/belt.png|Images/book.png,binder|calculator|gun|record player|cd|lightbulb|door|slippers|belt|book,7|5|4|3|1|6|10|8|2|9,allStim|allStim|allStim|allStim|allStim|allStim|allStim|allStim|allStim|allStim,Grid6|Grid6|Grid6|Grid6|Grid6|Grid6|Grid6|Grid6|Grid6|Grid6,52::61,vdrGridTestDALocal,user,,"Please place the items in their correct locations. If you do not remember exactly, please provide your best guess.",,off,90643,,,3290,83594,,,,1,,,10,9,1,10,10,9,1,10,10,1,undefined,0.238095238,49,38.5,7,55,41,"3.4,3.3,0.1,2.1,4.2,1.3,4.0,1.4,2.2,0.0","7,5,4,3,1,6,10,8,2,9","1,0,1,0,1,0,1,1,1,1","4,6,9,5,1,7,10,2,3,8","3.4,2.1,0.1,1.3,4.2,3.3,4.0,1.4,2.2,0.0","10,9,1,10,10,9,1,10,10,1,,,,,,,,,,",9,2.2,2,1,3,2.2,10,Images/belt.png,belt,2,allStim,Grid6
9999999999,abcdefghijk,VSS-CONF-GLBLOC,1,17,2020-04-16T10:25:27-07:00,0.009093046,1,vssStim.csv,vssProcSimLocalOnly.csv,vss-sim-loc,"10 items presented simultaneously in a grid, with values 1-10, without tones (only local item-level confidence ratings)",Images/binder.GIF|Images/calculator.GIF|Images/gun.png|Images/record player.png|Images/cd.GIF|Images/lightbulb.png|Images/door.jpg|Images/slippers.bmp|Images/belt.png|Images/book.png,binder|calculator|gun|record player|cd|lightbulb|door|slippers|belt|book,7|5|4|3|1|6|10|8|2|9,allStim|allStim|allStim|allStim|allStim|allStim|allStim|allStim|allStim|allStim,Grid6|Grid6|Grid6|Grid6|Grid6|Grid6|Grid6|Grid6|Grid6|Grid6,52::61,vdrGridTestDALocal,user,,"Please place the items in their correct locations. If you do not remember exactly, please provide your best guess.",,off,90643,,,3290,83594,,,,1,,,10,9,1,10,10,9,1,10,10,1,undefined,0.238095238,49,38.5,7,55,41,"3.4,3.3,0.1,2.1,4.2,1.3,4.0,1.4,2.2,0.0","7,5,4,3,1,6,10,8,2,9","1,0,1,0,1,0,1,1,1,1","4,6,9,5,1,7,10,2,3,8","3.4,2.1,0.1,1.3,4.2,3.3,4.0,1.4,2.2,0.0","10,9,1,10,10,9,1,10,10,1,,,,,,,,,,",4,2.1,3,0,5,1.3,10,Images/record player.png,record player,3,allStim,Grid6
9999999999,abcdefghijk,VSS-CONF-GLBLOC,1,17,2020-04-16T10:25:27-07:00,0.009036064,1,vssStim.csv,vssProcSimLocalOnly.csv,vss-sim-loc,"10 items presented simultaneously in a grid, with values 1-10, without tones (only local item-level confidence ratings)",Images/binder.GIF|Images/calculator.GIF|Images/gun.png|Images/record player.png|Images/cd.GIF|Images/lightbulb.png|Images/door.jpg|Images/slippers.bmp|Images/belt.png|Images/book.png,binder|calculator|gun|record player|cd|lightbulb|door|slippers|belt|book,7|5|4|3|1|6|10|8|2|9,allStim|allStim|allStim|allStim|allStim|allStim|allStim|allStim|allStim|allStim,Grid6|Grid6|Grid6|Grid6|Grid6|Grid6|Grid6|Grid6|Grid6|Grid6,52::61,vdrGridTestDALocal,user,,"Please place the items in their correct locations. If you do not remember exactly, please provide your best guess.",,off,90643,,,3290,83594,,,,1,,,10,9,1,10,10,9,1,10,10,1,undefined,0.238095238,49,38.5,7,55,41,"3.4,3.3,0.1,2.1,4.2,1.3,4.0,1.4,2.2,0.0","7,5,4,3,1,6,10,8,2,9","1,0,1,0,1,0,1,1,1,1","4,6,9,5,1,7,10,2,3,8","3.4,2.1,0.1,1.3,4.2,3.3,4.0,1.4,2.2,0.0","10,9,1,10,10,9,1,10,10,1,,,,,,,,,,",3,0.1,4,1,9,0.1,1,Images/gun.png,gun,4,allStim,Grid6
9999999999,abcdefghijk,VSS-CONF-GLBLOC,1,17,2020-04-16T10:25:27-07:00,0.009135008,1,vssStim.csv,vssProcSimLocalOnly.csv,vss-sim-loc,"10 items presented simultaneously in a grid, with values 1-10, without tones (only local item-level confidence ratings)",Images/binder.GIF|Images/calculator.GIF|Images/gun.png|Images/record player.png|Images/cd.GIF|Images/lightbulb.png|Images/door.jpg|Images/slippers.bmp|Images/belt.png|Images/book.png,binder|calculator|gun|record player|cd|lightbulb|door|slippers|belt|book,7|5|4|3|1|6|10|8|2|9,allStim|allStim|allStim|allStim|allStim|allStim|allStim|allStim|allStim|allStim,Grid6|Grid6|Grid6|Grid6|Grid6|Grid6|Grid6|Grid6|Grid6|Grid6,52::61,vdrGridTestDALocal,user,,"Please place the items in their correct locations. If you do not remember exactly, please provide your best guess.",,off,90643,,,3290,83594,,,,1,,,10,9,1,10,10,9,1,10,10,1,undefined,0.238095238,49,38.5,7,55,41,"3.4,3.3,0.1,2.1,4.2,1.3,4.0,1.4,2.2,0.0","7,5,4,3,1,6,10,8,2,9","1,0,1,0,1,0,1,1,1,1","4,6,9,5,1,7,10,2,3,8","3.4,2.1,0.1,1.3,4.2,3.3,4.0,1.4,2.2,0.0","10,9,1,10,10,9,1,10,10,1,,,,,,,,,,",2,3.3,5,0,6,2.1,9,Images/calculator.GIF,calculator,5,allStim,Grid6
9999999999,abcdefghijk,VSS-CONF-GLBLOC,1,17,2020-04-16T10:25:27-07:00,0.009584904,1,vssStim.csv,vssProcSimLocalOnly.csv,vss-sim-loc,"10 items presented simultaneously in a grid, with values 1-10, without tones (only local item-level confidence ratings)",Images/binder.GIF|Images/calculator.GIF|Images/gun.png|Images/record player.png|Images/cd.GIF|Images/lightbulb.png|Images/door.jpg|Images/slippers.bmp|Images/belt.png|Images/book.png,binder|calculator|gun|record player|cd|lightbulb|door|slippers|belt|book,7|5|4|3|1|6|10|8|2|9,allStim|allStim|allStim|allStim|allStim|allStim|allStim|allStim|allStim|allStim,Grid6|Grid6|Grid6|Grid6|Grid6|Grid6|Grid6|Grid6|Grid6|Grid6,52::61,vdrGridTestDALocal,user,,"Please place the items in their correct locations. If you do not remember exactly, please provide your best guess.",,off,90643,,,3290,83594,,,,1,,,10,9,1,10,10,9,1,10,10,1,undefined,0.238095238,49,38.5,7,55,41,"3.4,3.3,0.1,2.1,4.2,1.3,4.0,1.4,2.2,0.0","7,5,4,3,1,6,10,8,2,9","1,0,1,0,1,0,1,1,1,1","4,6,9,5,1,7,10,2,3,8","3.4,2.1,0.1,1.3,4.2,3.3,4.0,1.4,2.2,0.0","10,9,1,10,10,9,1,10,10,1,,,,,,,,,,",6,1.3,6,0,7,3.3,9,Images/lightbulb.png,lightbulb,6,allStim,Grid6
9999999999,abcdefghijk,VSS-CONF-GLBLOC,1,17,2020-04-16T10:25:27-07:00,0.009496927,1,vssStim.csv,vssProcSimLocalOnly.csv,vss-sim-loc,"10 items presented simultaneously in a grid, with values 1-10, without tones (only local item-level confidence ratings)",Images/binder.GIF|Images/calculator.GIF|Images/gun.png|Images/record player.png|Images/cd.GIF|Images/lightbulb.png|Images/door.jpg|Images/slippers.bmp|Images/belt.png|Images/book.png,binder|calculator|gun|record player|cd|lightbulb|door|slippers|belt|book,7|5|4|3|1|6|10|8|2|9,allStim|allStim|allStim|allStim|allStim|allStim|allStim|allStim|allStim|allStim,Grid6|Grid6|Grid6|Grid6|Grid6|Grid6|Grid6|Grid6|Grid6|Grid6,52::61,vdrGridTestDALocal,user,,"Please place the items in their correct locations. If you do not remember exactly, please provide your best guess.",,off,90643,,,3290,83594,,,,1,,,10,9,1,10,10,9,1,10,10,1,undefined,0.238095238,49,38.5,7,55,41,"3.4,3.3,0.1,2.1,4.2,1.3,4.0,1.4,2.2,0.0","7,5,4,3,1,6,10,8,2,9","1,0,1,0,1,0,1,1,1,1","4,6,9,5,1,7,10,2,3,8","3.4,2.1,0.1,1.3,4.2,3.3,4.0,1.4,2.2,0.0","10,9,1,10,10,9,1,10,10,1,,,,,,,,,,",1,3.4,7,1,4,3.4,10,Images/binder.GIF,binder,7,allStim,Grid6
9999999999,abcdefghijk,VSS-CONF-GLBLOC,1,17,2020-04-16T10:25:27-07:00,0.009613037,1,vssStim.csv,vssProcSimLocalOnly.csv,vss-sim-loc,"10 items presented simultaneously in a grid, with values 1-10, without tones (only local item-level confidence ratings)",Images/binder.GIF|Images/calculator.GIF|Images/gun.png|Images/record player.png|Images/cd.GIF|Images/lightbulb.png|Images/door.jpg|Images/slippers.bmp|Images/belt.png|Images/book.png,binder|calculator|gun|record player|cd|lightbulb|door|slippers|belt|book,7|5|4|3|1|6|10|8|2|9,allStim|allStim|allStim|allStim|allStim|allStim|allStim|allStim|allStim|allStim,Grid6|Grid6|Grid6|Grid6|Grid6|Grid6|Grid6|Grid6|Grid6|Grid6,52::61,vdrGridTestDALocal,user,,"Please place the items in their correct locations. If you do not remember exactly, please provide your best guess.",,off,90643,,,3290,83594,,,,1,,,10,9,1,10,10,9,1,10,10,1,undefined,0.238095238,49,38.5,7,55,41,"3.4,3.3,0.1,2.1,4.2,1.3,4.0,1.4,2.2,0.0","7,5,4,3,1,6,10,8,2,9","1,0,1,0,1,0,1,1,1,1","4,6,9,5,1,7,10,2,3,8","3.4,2.1,0.1,1.3,4.2,3.3,4.0,1.4,2.2,0.0","10,9,1,10,10,9,1,10,10,1,,,,,,,,,,",8,1.4,8,1,2,1.4,10,Images/slippers.bmp,slippers,8,allStim,Grid6
9999999999,abcdefghijk,VSS-CONF-GLBLOC,1,17,2020-04-16T10:25:27-07:00,0.009647131,1,vssStim.csv,vssProcSimLocalOnly.csv,vss-sim-loc,"10 items presented simultaneously in a grid, with values 1-10, without tones (only local item-level confidence ratings)",Images/binder.GIF|Images/calculator.GIF|Images/gun.png|Images/record player.png|Images/cd.GIF|Images/lightbulb.png|Images/door.jpg|Images/slippers.bmp|Images/belt.png|Images/book.png,binder|calculator|gun|record player|cd|lightbulb|door|slippers|belt|book,7|5|4|3|1|6|10|8|2|9,allStim|allStim|allStim|allStim|allStim|allStim|allStim|allStim|allStim|allStim,Grid6|Grid6|Grid6|Grid6|Grid6|Grid6|Grid6|Grid6|Grid6|Grid6,52::61,vdrGridTestDALocal,user,,"Please place the items in their correct locations. If you do not remember exactly, please provide your best guess.",,off,90643,,,3290,83594,,,,1,,,10,9,1,10,10,9,1,10,10,1,undefined,0.238095238,49,38.5,7,55,41,"3.4,3.3,0.1,2.1,4.2,1.3,4.0,1.4,2.2,0.0","7,5,4,3,1,6,10,8,2,9","1,0,1,0,1,0,1,1,1,1","4,6,9,5,1,7,10,2,3,8","3.4,2.1,0.1,1.3,4.2,3.3,4.0,1.4,2.2,0.0","10,9,1,10,10,9,1,10,10,1,,,,,,,,,,",10,0,9,1,8,0,1,Images/book.png,book,9,allStim,Grid6
9999999999,abcdefghijk,VSS-CONF-GLBLOC,1,17,2020-04-16T10:25:27-07:00,0.009864807,1,vssStim.csv,vssProcSimLocalOnly.csv,vss-sim-loc,"10 items presented simultaneously in a grid, with values 1-10, without tones (only local item-level confidence ratings)",Images/binder.GIF|Images/calculator.GIF|Images/gun.png|Images/record player.png|Images/cd.GIF|Images/lightbulb.png|Images/door.jpg|Images/slippers.bmp|Images/belt.png|Images/book.png,binder|calculator|gun|record player|cd|lightbulb|door|slippers|belt|book,7|5|4|3|1|6|10|8|2|9,allStim|allStim|allStim|allStim|allStim|allStim|allStim|allStim|allStim|allStim,Grid6|Grid6|Grid6|Grid6|Grid6|Grid6|Grid6|Grid6|Grid6|Grid6,52::61,vdrGridTestDALocal,user,,"Please place the items in their correct locations. If you do not remember exactly, please provide your best guess.",,off,90643,,,3290,83594,,,,1,,,10,9,1,10,10,9,1,10,10,1,undefined,0.238095238,49,38.5,7,55,41,"3.4,3.3,0.1,2.1,4.2,1.3,4.0,1.4,2.2,0.0","7,5,4,3,1,6,10,8,2,9","1,0,1,0,1,0,1,1,1,1","4,6,9,5,1,7,10,2,3,8","3.4,2.1,0.1,1.3,4.2,3.3,4.0,1.4,2.2,0.0","10,9,1,10,10,9,1,10,10,1,,,,,,,,,,",7,4,10,1,10,4,1,Images/door.jpg,door,10,allStim,Grid6
9999999999,abcdefghijk,VSS-CONF-GLBLOC,1,18,2020-04-16T10:26:00-07:00,33.83381319,1,vssStim.csv,vssProcSimLocalOnly.csv,vss-sim-loc,"10 items presented simultaneously in a grid, with values 1-10, without tones (only local item-level confidence ratings)",Images/lock.png|Images/necklace.png|Images/iron.jpg|Images/saw.png|Images/iceskate.bmp|Images/stove.jpg|Images/fork.png|Images/globe.png|Images/clothespin.png|Images/clippers.bmp,lock|necklace|iron|saw|iceskate|stove|fork|globe|clothespin|clippers,5|8|7|10|3|4|9|6|2|1,allStim|allStim|allStim|allStim|allStim|allStim|allStim|allStim|allStim|allStim,Grid7|Grid7|Grid7|Grid7|Grid7|Grid7|Grid7|Grid7|Grid7|Grid7,62::71,vdrGridDA,user,,,"""isi"": 0, ""study protocol"": ""simultaneous"", ""tones"": ""off""",off,33506,,,-1,-1,,,,1,simultaneous,"[[8,9],{""1"":1,""0"":3},{""2"":4,""3"":6},{""3"":7,""4"":0},{""4"":2,""2"":5}]",,,,,,,,,,,,,,,,,,,,,,,,,,,,,,,,,,,
9999999999,abcdefghijk,VSS-CONF-GLBLOC,1,19,2020-04-16T10:27:24-07:00,83.92174888,1,vssStim.csv,vssProcSimLocalOnly.csv,vss-sim-loc,"10 items presented simultaneously in a grid, with values 1-10, without tones (only local item-level confidence ratings)",Images/lock.png|Images/necklace.png|Images/iron.jpg|Images/saw.png|Images/iceskate.bmp|Images/stove.jpg|Images/fork.png|Images/globe.png|Images/clothespin.png|Images/clippers.bmp,lock|necklace|iron|saw|iceskate|stove|fork|globe|clothespin|clippers,5|8|7|10|3|4|9|6|2|1,allStim|allStim|allStim|allStim|allStim|allStim|allStim|allStim|allStim|allStim,Grid7|Grid7|Grid7|Grid7|Grid7|Grid7|Grid7|Grid7|Grid7|Grid7,62::71,vdrGridTestDALocal,user,,"Please place the items in their correct locations. If you do not remember exactly, please provide your best guess.",,off,82353,,,6370,76012,,,,1,,,1,10,1,10,1,1,1,1,10,10,undefined,0.04,40,27.5,5,55,28,"2.2,1.1,4.4,0.1,2.3,3.4,3.3,4.3,0.0,1.0","5,8,7,10,3,4,9,6,2,1","0,1,1,1,0,0,0,0,1,1","7,4,8,3,6,10,5,9,1,2","4.3,1.1,4.4,0.1,2.2,2.4,3.2,3.3,0.0,1.0","1,10,1,10,1,1,1,1,10,10,,,,,,,,,,",10,1,1,1,2,1,10,Images/clippers.bmp,clippers,1,allStim,Grid7
9999999999,abcdefghijk,VSS-CONF-GLBLOC,1,19,2020-04-16T10:27:24-07:00,0.010535955,1,vssStim.csv,vssProcSimLocalOnly.csv,vss-sim-loc,"10 items presented simultaneously in a grid, with values 1-10, without tones (only local item-level confidence ratings)",Images/lock.png|Images/necklace.png|Images/iron.jpg|Images/saw.png|Images/iceskate.bmp|Images/stove.jpg|Images/fork.png|Images/globe.png|Images/clothespin.png|Images/clippers.bmp,lock|necklace|iron|saw|iceskate|stove|fork|globe|clothespin|clippers,5|8|7|10|3|4|9|6|2|1,allStim|allStim|allStim|allStim|allStim|allStim|allStim|allStim|allStim|allStim,Grid7|Grid7|Grid7|Grid7|Grid7|Grid7|Grid7|Grid7|Grid7|Grid7,62::71,vdrGridTestDALocal,user,,"Please place the items in their correct locations. If you do not remember exactly, please provide your best guess.",,off,82353,,,6370,76012,,,,1,,,1,10,1,10,1,1,1,1,10,10,undefined,0.04,40,27.5,5,55,28,"2.2,1.1,4.4,0.1,2.3,3.4,3.3,4.3,0.0,1.0","5,8,7,10,3,4,9,6,2,1","0,1,1,1,0,0,0,0,1,1","7,4,8,3,6,10,5,9,1,2","4.3,1.1,4.4,0.1,2.2,2.4,3.2,3.3,0.0,1.0","1,10,1,10,1,1,1,1,10,10,,,,,,,,,,",9,0,2,1,1,0,10,Images/clothespin.png,clothespin,2,allStim,Grid7
9999999999,abcdefghijk,VSS-CONF-GLBLOC,1,19,2020-04-16T10:27:24-07:00,0.010422945,1,vssStim.csv,vssProcSimLocalOnly.csv,vss-sim-loc,"10 items presented simultaneously in a grid, with values 1-10, without tones (only local item-level confidence ratings)",Images/lock.png|Images/necklace.png|Images/iron.jpg|Images/saw.png|Images/iceskate.bmp|Images/stove.jpg|Images/fork.png|Images/globe.png|Images/clothespin.png|Images/clippers.bmp,lock|necklace|iron|saw|iceskate|stove|fork|globe|clothespin|clippers,5|8|7|10|3|4|9|6|2|1,allStim|allStim|allStim|allStim|allStim|allStim|allStim|allStim|allStim|allStim,Grid7|Grid7|Grid7|Grid7|Grid7|Grid7|Grid7|Grid7|Grid7|Grid7,62::71,vdrGridTestDALocal,user,,"Please place the items in their correct locations. If you do not remember exactly, please provide your best guess.",,off,82353,,,6370,76012,,,,1,,,1,10,1,10,1,1,1,1,10,10,undefined,0.04,40,27.5,5,55,28,"2.2,1.1,4.4,0.1,2.3,3.4,3.3,4.3,0.0,1.0","5,8,7,10,3,4,9,6,2,1","0,1,1,1,0,0,0,0,1,1","7,4,8,3,6,10,5,9,1,2","4.3,1.1,4.4,0.1,2.2,2.4,3.2,3.3,0.0,1.0","1,10,1,10,1,1,1,1,10,10,,,,,,,,,,",5,2.3,3,0,6,2.2,1,Images/iceskate.bmp,iceskate,3,allStim,Grid7
9999999999,abcdefghijk,VSS-CONF-GLBLOC,1,19,2020-04-16T10:27:24-07:00,0.01048708,1,vssStim.csv,vssProcSimLocalOnly.csv,vss-sim-loc,"10 items presented simultaneously in a grid, with values 1-10, without tones (only local item-level confidence ratings)",Images/lock.png|Images/necklace.png|Images/iron.jpg|Images/saw.png|Images/iceskate.bmp|Images/stove.jpg|Images/fork.png|Images/globe.png|Images/clothespin.png|Images/clippers.bmp,lock|necklace|iron|saw|iceskate|stove|fork|globe|clothespin|clippers,5|8|7|10|3|4|9|6|2|1,allStim|allStim|allStim|allStim|allStim|allStim|allStim|allStim|allStim|allStim,Grid7|Grid7|Grid7|Grid7|Grid7|Grid7|Grid7|Grid7|Grid7|Grid7,62::71,vdrGridTestDALocal,user,,"Please place the items in their correct locations. If you do not remember exactly, please provide your best guess.",,off,82353,,,6370,76012,,,,1,,,1,10,1,10,1,1,1,1,10,10,undefined,0.04,40,27.5,5,55,28,"2.2,1.1,4.4,0.1,2.3,3.4,3.3,4.3,0.0,1.0","5,8,7,10,3,4,9,6,2,1","0,1,1,1,0,0,0,0,1,1","7,4,8,3,6,10,5,9,1,2","4.3,1.1,4.4,0.1,2.2,2.4,3.2,3.3,0.0,1.0","1,10,1,10,1,1,1,1,10,10,,,,,,,,,,",6,3.4,4,0,10,2.4,1,Images/stove.jpg,stove,4,allStim,Grid7
9999999999,abcdefghijk,VSS-CONF-GLBLOC,1,19,2020-04-16T10:27:24-07:00,0.010607004,1,vssStim.csv,vssProcSimLocalOnly.csv,vss-sim-loc,"10 items presented simultaneously in a grid, with values 1-10, without tones (only local item-level confidence ratings)",Images/lock.png|Images/necklace.png|Images/iron.jpg|Images/saw.png|Images/iceskate.bmp|Images/stove.jpg|Images/fork.png|Images/globe.png|Images/clothespin.png|Images/clippers.bmp,lock|necklace|iron|saw|iceskate|stove|fork|globe|clothespin|clippers,5|8|7|10|3|4|9|6|2|1,allStim|allStim|allStim|allStim|allStim|allStim|allStim|allStim|allStim|allStim,Grid7|Grid7|Grid7|Grid7|Grid7|Grid7|Grid7|Grid7|Grid7|Grid7,62::71,vdrGridTestDALocal,user,,"Please place the items in their correct locations. If you do not remember exactly, please provide your best guess.",,off,82353,,,6370,76012,,,,1,,,1,10,1,10,1,1,1,1,10,10,undefined,0.04,40,27.5,5,55,28,"2.2,1.1,4.4,0.1,2.3,3.4,3.3,4.3,0.0,1.0","5,8,7,10,3,4,9,6,2,1","0,1,1,1,0,0,0,0,1,1","7,4,8,3,6,10,5,9,1,2","4.3,1.1,4.4,0.1,2.2,2.4,3.2,3.3,0.0,1.0","1,10,1,10,1,1,1,1,10,10,,,,,,,,,,",1,2.2,5,0,7,4.3,1,Images/lock.png,lock,5,allStim,Grid7
9999999999,abcdefghijk,VSS-CONF-GLBLOC,1,19,2020-04-16T10:27:24-07:00,0.010949135,1,vssStim.csv,vssProcSimLocalOnly.csv,vss-sim-loc,"10 items presented simultaneously in a grid, with values 1-10, without tones (only local item-level confidence ratings)",Images/lock.png|Images/necklace.png|Images/iron.jpg|Images/saw.png|Images/iceskate.bmp|Images/stove.jpg|Images/fork.png|Images/globe.png|Images/clothespin.png|Images/clippers.bmp,lock|necklace|iron|saw|iceskate|stove|fork|globe|clothespin|clippers,5|8|7|10|3|4|9|6|2|1,allStim|allStim|allStim|allStim|allStim|allStim|allStim|allStim|allStim|allStim,Grid7|Grid7|Grid7|Grid7|Grid7|Grid7|Grid7|Grid7|Grid7|Grid7,62::71,vdrGridTestDALocal,user,,"Please place the items in their correct locations. If you do not remember exactly, please provide your best guess.",,off,82353,,,6370,76012,,,,1,,,1,10,1,10,1,1,1,1,10,10,undefined,0.04,40,27.5,5,55,28,"2.2,1.1,4.4,0.1,2.3,3.4,3.3,4.3,0.0,1.0","5,8,7,10,3,4,9,6,2,1","0,1,1,1,0,0,0,0,1,1","7,4,8,3,6,10,5,9,1,2","4.3,1.1,4.4,0.1,2.2,2.4,3.2,3.3,0.0,1.0","1,10,1,10,1,1,1,1,10,10,,,,,,,,,,",8,4.3,6,0,9,3.3,1,Images/globe.png,globe,6,allStim,Grid7
9999999999,abcdefghijk,VSS-CONF-GLBLOC,1,19,2020-04-16T10:27:24-07:00,0.010974884,1,vssStim.csv,vssProcSimLocalOnly.csv,vss-sim-loc,"10 items presented simultaneously in a grid, with values 1-10, without tones (only local item-level confidence ratings)",Images/lock.png|Images/necklace.png|Images/iron.jpg|Images/saw.png|Images/iceskate.bmp|Images/stove.jpg|Images/fork.png|Images/globe.png|Images/clothespin.png|Images/clippers.bmp,lock|necklace|iron|saw|iceskate|stove|fork|globe|clothespin|clippers,5|8|7|10|3|4|9|6|2|1,allStim|allStim|allStim|allStim|allStim|allStim|allStim|allStim|allStim|allStim,Grid7|Grid7|Grid7|Grid7|Grid7|Grid7|Grid7|Grid7|Grid7|Grid7,62::71,vdrGridTestDALocal,user,,"Please place the items in their correct locations. If you do not remember exactly, please provide your best guess.",,off,82353,,,6370,76012,,,,1,,,1,10,1,10,1,1,1,1,10,10,undefined,0.04,40,27.5,5,55,28,"2.2,1.1,4.4,0.1,2.3,3.4,3.3,4.3,0.0,1.0","5,8,7,10,3,4,9,6,2,1","0,1,1,1,0,0,0,0,1,1","7,4,8,3,6,10,5,9,1,2","4.3,1.1,4.4,0.1,2.2,2.4,3.2,3.3,0.0,1.0","1,10,1,10,1,1,1,1,10,10,,,,,,,,,,",3,4.4,7,1,8,4.4,1,Images/iron.jpg,iron,7,allStim,Grid7
9999999999,abcdefghijk,VSS-CONF-GLBLOC,1,19,2020-04-16T10:27:24-07:00,0.01095295,1,vssStim.csv,vssProcSimLocalOnly.csv,vss-sim-loc,"10 items presented simultaneously in a grid, with values 1-10, without tones (only local item-level confidence ratings)",Images/lock.png|Images/necklace.png|Images/iron.jpg|Images/saw.png|Images/iceskate.bmp|Images/stove.jpg|Images/fork.png|Images/globe.png|Images/clothespin.png|Images/clippers.bmp,lock|necklace|iron|saw|iceskate|stove|fork|globe|clothespin|clippers,5|8|7|10|3|4|9|6|2|1,allStim|allStim|allStim|allStim|allStim|allStim|allStim|allStim|allStim|allStim,Grid7|Grid7|Grid7|Grid7|Grid7|Grid7|Grid7|Grid7|Grid7|Grid7,62::71,vdrGridTestDALocal,user,,"Please place the items in their correct locations. If you do not remember exactly, please provide your best guess.",,off,82353,,,6370,76012,,,,1,,,1,10,1,10,1,1,1,1,10,10,undefined,0.04,40,27.5,5,55,28,"2.2,1.1,4.4,0.1,2.3,3.4,3.3,4.3,0.0,1.0","5,8,7,10,3,4,9,6,2,1","0,1,1,1,0,0,0,0,1,1","7,4,8,3,6,10,5,9,1,2","4.3,1.1,4.4,0.1,2.2,2.4,3.2,3.3,0.0,1.0","1,10,1,10,1,1,1,1,10,10,,,,,,,,,,",2,1.1,8,1,4,1.1,10,Images/necklace.png,necklace,8,allStim,Grid7
9999999999,abcdefghijk,VSS-CONF-GLBLOC,1,19,2020-04-16T10:27:25-07:00,0.014141083,1,vssStim.csv,vssProcSimLocalOnly.csv,vss-sim-loc,"10 items presented simultaneously in a grid, with values 1-10, without tones (only local item-level confidence ratings)",Images/lock.png|Images/necklace.png|Images/iron.jpg|Images/saw.png|Images/iceskate.bmp|Images/stove.jpg|Images/fork.png|Images/globe.png|Images/clothespin.png|Images/clippers.bmp,lock|necklace|iron|saw|iceskate|stove|fork|globe|clothespin|clippers,5|8|7|10|3|4|9|6|2|1,allStim|allStim|allStim|allStim|allStim|allStim|allStim|allStim|allStim|allStim,Grid7|Grid7|Grid7|Grid7|Grid7|Grid7|Grid7|Grid7|Grid7|Grid7,62::71,vdrGridTestDALocal,user,,"Please place the items in their correct locations. If you do not remember exactly, please provide your best guess.",,off,82353,,,6370,76012,,,,1,,,1,10,1,10,1,1,1,1,10,10,undefined,0.04,40,27.5,5,55,28,"2.2,1.1,4.4,0.1,2.3,3.4,3.3,4.3,0.0,1.0","5,8,7,10,3,4,9,6,2,1","0,1,1,1,0,0,0,0,1,1","7,4,8,3,6,10,5,9,1,2","4.3,1.1,4.4,0.1,2.2,2.4,3.2,3.3,0.0,1.0","1,10,1,10,1,1,1,1,10,10,,,,,,,,,,",7,3.3,9,0,5,3.2,1,Images/fork.png,fork,9,allStim,Grid7
9999999999,abcdefghijk,VSS-CONF-GLBLOC,1,19,2020-04-16T10:27:25-07:00,0.011416912,1,vssStim.csv,vssProcSimLocalOnly.csv,vss-sim-loc,"10 items presented simultaneously in a grid, with values 1-10, without tones (only local item-level confidence ratings)",Images/lock.png|Images/necklace.png|Images/iron.jpg|Images/saw.png|Images/iceskate.bmp|Images/stove.jpg|Images/fork.png|Images/globe.png|Images/clothespin.png|Images/clippers.bmp,lock|necklace|iron|saw|iceskate|stove|fork|globe|clothespin|clippers,5|8|7|10|3|4|9|6|2|1,allStim|allStim|allStim|allStim|allStim|allStim|allStim|allStim|allStim|allStim,Grid7|Grid7|Grid7|Grid7|Grid7|Grid7|Grid7|Grid7|Grid7|Grid7,62::71,vdrGridTestDALocal,user,,"Please place the items in their correct locations. If you do not remember exactly, please provide your best guess.",,off,82353,,,6370,76012,,,,1,,,1,10,1,10,1,1,1,1,10,10,undefined,0.04,40,27.5,5,55,28,"2.2,1.1,4.4,0.1,2.3,3.4,3.3,4.3,0.0,1.0","5,8,7,10,3,4,9,6,2,1","0,1,1,1,0,0,0,0,1,1","7,4,8,3,6,10,5,9,1,2","4.3,1.1,4.4,0.1,2.2,2.4,3.2,3.3,0.0,1.0","1,10,1,10,1,1,1,1,10,10,,,,,,,,,,",4,0.1,10,1,3,0.1,10,Images/saw.png,saw,10,allStim,Grid7
9999999999,abcdefghijk,VSS-CONF-GLBLOC,1,20,2020-04-16T10:27:58-07:00,33.82183003,1,vssStim.csv,vssProcSimLocalOnly.csv,vss-sim-loc,"10 items presented simultaneously in a grid, with values 1-10, without tones (only local item-level confidence ratings)",Images/microwave.bmp|Images/barrel.jpg|Images/bat.png|Images/button.png|Images/pan.png|Images/speakers.bmp|Images/rope.png|Images/purse.png|Images/refrigerator.png|Images/ladder.GIF,microwave|barrel|bat|button|pan|speakers|rope|purse|refrigerator|ladder,5|10|7|3|6|9|8|4|1|2,allStim|allStim|allStim|allStim|allStim|allStim|allStim|allStim|allStim|allStim,Grid8|Grid8|Grid8|Grid8|Grid8|Grid8|Grid8|Grid8|Grid8|Grid8,72::81,vdrGridDA,user,,,"""isi"": 0, ""study protocol"": ""simultaneous"", ""tones"": ""off""",off,33506,,,-1,-1,,,,1,simultaneous,"[{""3"":6,""0"":7},{""0"":8,""4"":1},{""2"":4,""3"":0},{""4"":3,""1"":5},{""2"":9,""1"":2}]",,,,,,,,,,,,,,,,,,,,,,,,,,,,,,,,,,,
9999999999,abcdefghijk,VSS-CONF-GLBLOC,1,21,2020-04-16T10:29:30-07:00,91.25277495,1,vssStim.csv,vssProcSimLocalOnly.csv,vss-sim-loc,"10 items presented simultaneously in a grid, with values 1-10, without tones (only local item-level confidence ratings)",Images/microwave.bmp|Images/barrel.jpg|Images/bat.png|Images/button.png|Images/pan.png|Images/speakers.bmp|Images/rope.png|Images/purse.png|Images/refrigerator.png|Images/ladder.GIF,microwave|barrel|bat|button|pan|speakers|rope|purse|refrigerator|ladder,5|10|7|3|6|9|8|4|1|2,allStim|allStim|allStim|allStim|allStim|allStim|allStim|allStim|allStim|allStim,Grid8|Grid8|Grid8|Grid8|Grid8|Grid8|Grid8|Grid8|Grid8|Grid8,72::81,vdrGridTestDALocal,user,,"Please place the items in their correct locations. If you do not remember exactly, please provide your best guess.",,off,90908,,,3428,83182,,,,1,,,1,10,10,10,1,10,10,10,1,1,undefined,0.80952381,27,16.5,3,55,25,"0.4,4.1,1.4,4.2,1.3,0.0,3.0,0.1,0.3,2.3","5,10,7,3,6,9,8,4,1,2","0,1,1,0,0,0,1,0,0,0","7,2,1,6,9,4,3,5,8,10","3.2,4.1,1.4,4.3,2.2,1.3,3.0,0.0,0.1,2.4","1,10,10,10,1,10,10,10,1,1,,,,,,,,,,",9,0.3,1,0,8,0.1,1,Images/refrigerator.png,refrigerator,1,allStim,Grid8
9999999999,abcdefghijk,VSS-CONF-GLBLOC,1,21,2020-04-16T10:29:30-07:00,0.012145996,1,vssStim.csv,vssProcSimLocalOnly.csv,vss-sim-loc,"10 items presented simultaneously in a grid, with values 1-10, without tones (only local item-level confidence ratings)",Images/microwave.bmp|Images/barrel.jpg|Images/bat.png|Images/button.png|Images/pan.png|Images/speakers.bmp|Images/rope.png|Images/purse.png|Images/refrigerator.png|Images/ladder.GIF,microwave|barrel|bat|button|pan|speakers|rope|purse|refrigerator|ladder,5|10|7|3|6|9|8|4|1|2,allStim|allStim|allStim|allStim|allStim|allStim|allStim|allStim|allStim|allStim,Grid8|Grid8|Grid8|Grid8|Grid8|Grid8|Grid8|Grid8|Grid8|Grid8,72::81,vdrGridTestDALocal,user,,"Please place the items in their correct locations. If you do not remember exactly, please provide your best guess.",,off,90908,,,3428,83182,,,,1,,,1,10,10,10,1,10,10,10,1,1,undefined,0.80952381,27,16.5,3,55,25,"0.4,4.1,1.4,4.2,1.3,0.0,3.0,0.1,0.3,2.3","5,10,7,3,6,9,8,4,1,2","0,1,1,0,0,0,1,0,0,0","7,2,1,6,9,4,3,5,8,10","3.2,4.1,1.4,4.3,2.2,1.3,3.0,0.0,0.1,2.4","1,10,10,10,1,10,10,10,1,1,,,,,,,,,,",10,2.3,2,0,10,2.4,1,Images/ladder.GIF,ladder,2,allStim,Grid8
9999999999,abcdefghijk,VSS-CONF-GLBLOC,1,21,2020-04-16T10:29:30-07:00,0.012318134,1,vssStim.csv,vssProcSimLocalOnly.csv,vss-sim-loc,"10 items presented simultaneously in a grid, with values 1-10, without tones (only local item-level confidence ratings)",Images/microwave.bmp|Images/barrel.jpg|Images/bat.png|Images/button.png|Images/pan.png|Images/speakers.bmp|Images/rope.png|Images/purse.png|Images/refrigerator.png|Images/ladder.GIF,microwave|barrel|bat|button|pan|speakers|rope|purse|refrigerator|ladder,5|10|7|3|6|9|8|4|1|2,allStim|allStim|allStim|allStim|allStim|allStim|allStim|allStim|allStim|allStim,Grid8|Grid8|Grid8|Grid8|Grid8|Grid8|Grid8|Grid8|Grid8|Grid8,72::81,vdrGridTestDALocal,user,,"Please place the items in their correct locations. If you do not remember exactly, please provide your best guess.",,off,90908,,,3428,83182,,,,1,,,1,10,10,10,1,10,10,10,1,1,undefined,0.80952381,27,16.5,3,55,25,"0.4,4.1,1.4,4.2,1.3,0.0,3.0,0.1,0.3,2.3","5,10,7,3,6,9,8,4,1,2","0,1,1,0,0,0,1,0,0,0","7,2,1,6,9,4,3,5,8,10","3.2,4.1,1.4,4.3,2.2,1.3,3.0,0.0,0.1,2.4","1,10,10,10,1,10,10,10,1,1,,,,,,,,,,",4,4.2,3,0,6,4.3,10,Images/button.png,button,3,allStim,Grid8
9999999999,abcdefghijk,VSS-CONF-GLBLOC,1,21,2020-04-16T10:29:30-07:00,0.011891842,1,vssStim.csv,vssProcSimLocalOnly.csv,vss-sim-loc,"10 items presented simultaneously in a grid, with values 1-10, without tones (only local item-level confidence ratings)",Images/microwave.bmp|Images/barrel.jpg|Images/bat.png|Images/button.png|Images/pan.png|Images/speakers.bmp|Images/rope.png|Images/purse.png|Images/refrigerator.png|Images/ladder.GIF,microwave|barrel|bat|button|pan|speakers|rope|purse|refrigerator|ladder,5|10|7|3|6|9|8|4|1|2,allStim|allStim|allStim|allStim|allStim|allStim|allStim|allStim|allStim|allStim,Grid8|Grid8|Grid8|Grid8|Grid8|Grid8|Grid8|Grid8|Grid8|Grid8,72::81,vdrGridTestDALocal,user,,"Please place the items in their correct locations. If you do not remember exactly, please provide your best guess.",,off,90908,,,3428,83182,,,,1,,,1,10,10,10,1,10,10,10,1,1,undefined,0.80952381,27,16.5,3,55,25,"0.4,4.1,1.4,4.2,1.3,0.0,3.0,0.1,0.3,2.3","5,10,7,3,6,9,8,4,1,2","0,1,1,0,0,0,1,0,0,0","7,2,1,6,9,4,3,5,8,10","3.2,4.1,1.4,4.3,2.2,1.3,3.0,0.0,0.1,2.4","1,10,10,10,1,10,10,10,1,1,,,,,,,,,,",8,0.1,4,0,5,0,10,Images/purse.png,purse,4,allStim,Grid8
9999999999,abcdefghijk,VSS-CONF-GLBLOC,1,21,2020-04-16T10:29:30-07:00,0.012202024,1,vssStim.csv,vssProcSimLocalOnly.csv,vss-sim-loc,"10 items presented simultaneously in a grid, with values 1-10, without tones (only local item-level confidence ratings)",Images/microwave.bmp|Images/barrel.jpg|Images/bat.png|Images/button.png|Images/pan.png|Images/speakers.bmp|Images/rope.png|Images/purse.png|Images/refrigerator.png|Images/ladder.GIF,microwave|barrel|bat|button|pan|speakers|rope|purse|refrigerator|ladder,5|10|7|3|6|9|8|4|1|2,allStim|allStim|allStim|allStim|allStim|allStim|allStim|allStim|allStim|allStim,Grid8|Grid8|Grid8|Grid8|Grid8|Grid8|Grid8|Grid8|Grid8|Grid8,72::81,vdrGridTestDALocal,user,,"Please place the items in their correct locations. If you do not remember exactly, please provide your best guess.",,off,90908,,,3428,83182,,,,1,,,1,10,10,10,1,10,10,10,1,1,undefined,0.80952381,27,16.5,3,55,25,"0.4,4.1,1.4,4.2,1.3,0.0,3.0,0.1,0.3,2.3","5,10,7,3,6,9,8,4,1,2","0,1,1,0,0,0,1,0,0,0","7,2,1,6,9,4,3,5,8,10","3.2,4.1,1.4,4.3,2.2,1.3,3.0,0.0,0.1,2.4","1,10,10,10,1,10,10,10,1,1,,,,,,,,,,",1,0.4,5,0,7,3.2,1,Images/microwave.bmp,microwave,5,allStim,Grid8
